aX,aY,aZ,gX,gY,gZ
-0.224,-0.820,-1.562,155.029,168.152,-8.057
-0.109,-0.808,-1.522,137.573,103.638,2.625
0.046,-0.762,-1.330,120.300,39.246,13.855
0.219,-0.718,-1.073,103.088,-9.644,22.400
0.386,-0.687,-0.792,83.008,-36.804,26.001
0.527,-0.677,-0.495,65.979,-40.100,28.198
0.664,-0.687,-0.262,50.659,-24.109,30.701
0.751,-0.685,-0.136,37.720,-2.319,32.410
0.771,-0.707,-0.103,27.466,13.428,30.396
0.766,-0.739,-0.125,18.677,22.827,26.978
0.716,-0.767,-0.182,11.841,27.954,24.719
0.686,-0.770,-0.275,7.080,26.611,23.682
0.625,-0.761,-0.280,2.563,13.428,23.499
0.595,-0.784,-0.345,-2.991,0.183,17.334
0.580,-0.807,-0.377,-5.737,-8.911,13.550
0.573,-0.795,-0.325,-9.460,-17.273,16.602
0.610,-0.749,-0.279,-14.771,-21.423,19.104
0.652,-0.741,-0.239,-17.822,-24.109,17.639
0.676,-0.738,-0.215,-19.592,-27.161,15.076
0.692,-0.736,-0.196,-22.888,-29.785,11.169
0.701,-0.726,-0.169,-26.428,-31.799,8.423
0.698,-0.727,-0.159,-29.114,-32.959,7.141
0.722,-0.709,-0.143,-33.081,-31.799,5.676
0.757,-0.677,-0.129,-37.903,-31.433,4.700
0.774,-0.670,-0.109,-43.457,-33.386,2.197
0.776,-0.685,-0.069,-47.974,-36.316,-2.258
0.758,-0.683,-0.013,-50.720,-38.025,-6.042
0.756,-0.702,0.030,-50.659,-37.048,-8.118
0.731,-0.701,0.053,-47.668,-36.926,-9.155
0.703,-0.725,0.041,-44.189,-35.278,-9.705
0.675,-0.728,0.024,-43.030,-32.593,-9.094
0.624,-0.749,-0.020,-42.969,-28.992,-9.521
0.591,-0.767,-0.069,-46.631,-24.353,-10.254
0.594,-0.709,-0.094,-53.040,-20.142,-8.362
0.617,-0.698,-0.081,-57.434,-18.555,-7.996
0.638,-0.680,-0.061,-60.547,-22.339,-7.812
0.660,-0.671,-0.017,-62.988,-32.532,-9.827
0.686,-0.664,0.059,-64.148,-45.959,-11.719
0.695,-0.659,0.140,-63.721,-59.692,-14.038
0.670,-0.679,0.192,-61.157,-70.190,-17.822
0.629,-0.708,0.233,-57.983,-73.669,-19.531
0.590,-0.720,0.235,-56.091,-67.261,-19.043
0.556,-0.728,0.217,-54.993,-51.636,-17.334
0.535,-0.722,0.182,-55.725,-31.677,-13.794
0.520,-0.719,0.146,-57.678,-14.526,-10.193
0.499,-0.718,0.108,-59.692,-4.211,-7.996
0.507,-0.700,0.095,-61.829,-0.916,-5.432
0.541,-0.671,0.127,-63.660,-5.005,-3.662
0.554,-0.653,0.201,-65.247,-15.869,-3.418
0.577,-0.660,0.293,-65.002,-29.114,-4.028
0.572,-0.663,0.373,-63.354,-39.612,-4.211
0.578,-0.681,0.422,-62.378,-44.678,-4.517
0.578,-0.671,0.435,-62.195,-41.687,-4.395
0.576,-0.669,0.446,-63.843,-31.738,-3.845
0.557,-0.688,0.441,-67.383,-17.395,-3.723
0.530,-0.690,0.412,-71.350,-1.160,-2.441
0.510,-0.700,0.382,-75.745,13.123,0.366
0.501,-0.684,0.357,-79.468,23.254,2.991
0.504,-0.687,0.373,-82.703,23.743,6.592
0.522,-0.674,0.420,-83.923,18.616,10.010
0.529,-0.657,0.493,-80.994,9.277,12.756
0.543,-0.668,0.521,-74.402,0.061,11.719
0.551,-0.658,0.524,-66.284,-5.859,13.000
0.560,-0.666,0.524,-60.364,-7.690,14.587
0.553,-0.670,0.502,-57.617,-4.639,14.160
0.533,-0.672,0.468,-56.274,3.845,13.123
0.564,-0.698,0.459,-56.885,14.221,10.620
0.532,-0.653,0.432,-51.025,17.944,12.634
0.564,-0.676,0.473,-52.368,10.925,8.423
0.558,-0.668,0.475,-48.767,0.305,7.141
0.573,-0.668,0.534,-46.204,-12.451,6.592
0.575,-0.670,0.588,-41.809,-22.095,5.920
0.574,-0.667,0.629,-35.583,-25.391,6.653
0.594,-0.663,0.637,-29.602,-25.513,9.216
0.604,-0.650,0.614,-24.475,-22.583,10.498
0.607,-0.659,0.582,-21.729,-16.418,11.047
0.630,-0.630,0.541,-22.034,-7.812,10.437
0.638,-0.619,0.534,-23.865,-1.709,8.667
0.638,-0.630,0.541,-27.039,-1.343,6.958
0.657,-0.613,0.563,-29.968,-3.845,7.324
0.687,-0.589,0.598,-31.311,-9.521,8.362
0.703,-0.580,0.609,-30.273,-18.311,6.714
0.685,-0.597,0.598,-26.672,-26.917,3.662
0.691,-0.601,0.576,-23.987,-31.616,2.686
0.676,-0.561,0.540,-23.376,-31.860,2.869
0.675,-0.569,0.565,-23.315,-29.114,1.160
0.666,-0.554,0.605,-23.682,-23.682,0.671
0.652,-0.556,0.638,-24.536,-17.334,1.709
0.657,-0.558,0.652,-22.949,-10.803,3.296
0.671,-0.529,0.650,-21.362,-3.357,5.188
0.677,-0.520,0.674,-22.461,-2.319,4.822
0.672,-0.530,0.672,-20.386,-4.150,2.258
0.669,-0.523,0.712,-18.555,-9.399,1.404
0.650,-0.544,0.733,-15.381,-14.893,0.854
0.639,-0.557,0.732,-11.719,-19.531,0.244
0.636,-0.551,0.718,-8.850,-21.545,1.099
0.633,-0.545,0.704,-6.470,-20.691,1.404
0.629,-0.549,0.712,-5.371,-18.738,0.854
0.621,-0.557,0.723,-4.822,-15.564,0.427
0.618,-0.567,0.714,-4.700,-11.475,0.000
0.608,-0.566,0.696,-4.944,-6.836,0.244
0.602,-0.571,0.668,-4.456,-1.221,0.549
0.602,-0.568,0.664,-3.723,2.869,1.160
0.604,-0.571,0.661,-2.502,3.052,1.770
0.605,-0.576,0.647,-0.366,0.305,2.014
0.604,-0.580,0.630,0.916,-2.747,2.441
0.599,-0.575,0.620,0.977,-4.150,2.991
0.597,-0.583,0.610,1.099,-3.113,3.113
0.605,-0.579,0.602,0.244,-0.793,3.418
0.608,-0.572,0.586,-0.732,1.221,2.686
0.604,-0.577,0.577,-0.977,2.014,1.404
0.595,-0.580,0.574,-1.770,2.258,0.549
0.592,-0.583,0.583,-2.380,2.319,1.038
0.593,-0.580,0.575,-2.075,2.014,1.160
0.590,-0.579,0.576,-1.831,1.892,1.343
0.590,-0.579,0.577,-1.526,1.160,0.977
0.595,-0.579,0.576,-1.099,0.977,0.366
0.602,-0.568,0.578,-0.732,0.000,-0.122
0.598,-0.577,0.584,-0.122,-1.465,0.183
0.844,-0.355,1.474,34.424,-7.141,-7.385
0.849,-0.303,1.613,42.725,-3.357,-9.155
0.820,-0.313,1.737,53.101,1.038,-10.010
0.796,-0.310,1.776,65.735,9.460,-11.169
0.802,-0.290,1.770,81.482,21.057,-11.841
0.817,-0.284,1.738,98.511,29.602,-13.123
0.862,-0.291,1.717,113.464,30.945,-14.221
0.843,-0.318,1.733,125.793,21.912,-15.015
0.803,-0.375,1.705,137.512,8.484,-19.165
0.772,-0.410,1.620,152.161,-3.784,-26.062
0.725,-0.401,1.537,167.664,-13.916,-31.555
0.677,-0.419,1.380,186.829,-13.855,-40.039
0.574,-0.476,1.129,206.726,-3.418,-48.218
0.448,-0.516,0.863,220.032,16.907,-48.706
0.342,-0.448,0.506,230.164,50.293,-41.992
0.216,-0.401,0.013,241.699,95.337,-35.461
0.024,-0.381,-0.641,247.375,145.691,-30.579
-0.206,-0.388,-1.426,243.652,195.557,-27.466
-0.514,-0.381,-2.243,231.445,229.370,-26.428
-0.774,-0.492,-2.927,212.036,231.995,-25.696
-0.894,-0.480,-3.244,183.167,193.176,-16.357
-0.799,-0.558,-3.155,151.123,119.995,-0.122
-0.446,-0.517,-2.667,111.572,37.231,18.555
0.006,-0.444,-1.808,68.542,-28.198,29.541
0.328,-0.468,-0.876,33.447,-59.265,32.837
0.622,-0.536,-0.151,8.484,-51.331,32.532
0.849,-0.630,0.343,-6.653,-28.870,32.837
1.007,-0.701,0.618,-13.977,-4.761,33.142
1.064,-0.762,0.659,-15.564,14.771,29.541
1.029,-0.835,0.549,-12.878,25.208,21.851
0.913,-0.896,0.348,-7.996,25.635,13.184
0.783,-0.948,0.107,-5.737,19.775,5.249
0.635,-0.942,-0.083,-7.935,9.094,0.671
0.509,-0.970,-0.237,-13.489,-0.732,-2.563
0.435,-0.968,-0.326,-22.888,-7.690,-2.686
0.426,-0.914,-0.329,-33.813,-11.963,-0.549
0.456,-0.870,-0.271,-41.626,-13.184,-0.732
0.490,-0.843,-0.201,-45.593,-12.939,0.000
0.535,-0.820,-0.135,-46.082,-11.597,2.258
0.568,-0.794,-0.083,-44.067,-10.071,5.432
0.592,-0.760,-0.058,-37.964,-9.521,6.470
0.586,-0.778,-0.080,-28.137,-9.460,4.822
0.567,-0.778,-0.130,-20.752,-9.338,5.127
0.556,-0.766,-0.158,-17.395,-9.949,6.409
0.537,-0.751,-0.232,-14.404,-11.841,7.507
0.542,-0.767,-0.250,-20.081,-15.137,7.507
0.549,-0.744,-0.280,-24.780,-21.851,7.690
0.563,-0.735,-0.285,-27.832,-30.945,8.545
0.569,-0.690,-0.209,-36.377,-41.443,5.676
0.552,-0.699,-0.129,-47.852,-46.326,-1.648
0.535,-0.729,-0.028,-56.580,-45.227,-7.141
0.515,-0.728,0.032,-59.143,-39.673,-5.920
0.503,-0.752,0.052,-59.998,-30.884,-3.052
0.482,-0.771,0.037,-60.669,-19.836,0.061
0.467,-0.797,0.003,-62.012,-8.362,4.456
0.478,-0.784,-0.036,-64.819,-1.648,9.033
0.517,-0.754,-0.039,-70.068,-2.991,13.062
0.558,-0.733,-0.010,-77.209,-12.634,13.794
0.597,-0.717,0.017,-85.876,-26.001,10.681
0.616,-0.707,0.152,-92.896,-41.199,6.836
0.585,-0.691,0.294,-95.093,-52.063,1.587
0.562,-0.717,0.379,-89.722,-52.917,-2.197
0.552,-0.724,0.389,-83.679,-47.302,-1.831
0.568,-0.716,0.401,-79.773,-39.551,1.831
0.580,-0.705,0.406,-78.064,-31.921,5.371
0.597,-0.711,0.395,-78.857,-23.621,4.883
0.604,-0.699,0.387,-81.421,-16.052,3.296
0.602,-0.709,0.377,-84.290,-12.878,0.916
0.592,-0.696,0.364,-86.548,-11.719,-2.197
0.589,-0.681,0.374,-87.036,-12.939,-3.906
0.584,-0.674,0.410,-85.510,-18.799,-4.883
0.592,-0.670,0.486,-80.566,-28.687,-5.371
0.575,-0.684,0.550,-72.205,-38.025,-5.432
0.579,-0.666,0.594,-64.575,-42.725,-5.310
0.600,-0.646,0.597,-53.711,-40.710,-2.625
0.601,-0.644,0.630,-46.753,-32.104,0.122
0.601,-0.639,0.633,-45.715,-22.400,-2.502
0.596,-0.653,0.605,-42.419,-11.047,-2.686
0.581,-0.677,0.533,-42.480,-3.479,-3.601
0.589,-0.644,0.484,-46.387,3.662,-2.808
0.606,-0.627,0.498,-51.331,8.057,-2.686
0.606,-0.622,0.549,-54.077,6.897,-4.150
0.601,-0.624,0.593,-52.490,-1.221,-6.409
0.597,-0.636,0.632,-48.340,-13.000,-6.348
0.586,-0.626,0.661,-41.016,-24.841,-4.150
0.572,-0.626,0.647,-32.227,-29.968,-3.052
0.557,-0.638,0.608,-25.391,-26.855,-2.686
0.538,-0.622,0.544,-21.545,-16.846,-0.916
0.535,-0.608,0.510,-21.667,-4.639,0.366
0.525,-0.619,0.485,-22.888,5.676,0.061
0.517,-0.638,0.448,-25.757,11.963,2.136
0.558,-0.602,0.462,-32.959,10.742,6.409
0.591,-0.558,0.563,-41.870,2.625,8.362
0.588,-0.580,0.655,-43.823,-7.202,5.249
0.564,-0.587,0.720,-40.344,-16.174,3.113
0.561,-0.587,0.750,-35.095,-24.353,4.761
0.573,-0.570,0.759,-29.114,-27.649,7.019
0.574,-0.561,0.760,-24.414,-24.780,7.812
0.553,-0.571,0.750,-21.790,-15.991,7.568
0.557,-0.578,0.697,-18.005,-4.456,7.751
0.572,-0.569,0.677,-18.188,4.395,8.484
0.585,-0.552,0.668,-20.569,5.737,8.484
0.597,-0.554,0.685,-22.461,3.540,6.714
0.616,-0.544,0.739,-23.499,-1.831,4.517
0.615,-0.543,0.816,-23.560,-7.385,1.953
0.607,-0.564,0.857,-19.897,-12.085,-0.305
0.614,-0.567,0.857,-14.465,-15.320,-0.122
0.611,-0.572,0.842,-9.644,-18.555,0.183
0.600,-0.582,0.815,-5.859,-19.226,-0.549
0.590,-0.595,0.783,-4.028,-16.663,-1.343
0.578,-0.602,0.752,-3.723,-11.536,-1.648
0.571,-0.610,0.717,-3.845,-5.493,-1.404
0.564,-0.612,0.682,-4.578,0.000,-1.343
0.559,-0.617,0.659,-5.127,3.723,-1.404
0.554,-0.617,0.650,-5.615,4.822,-1.221
0.553,-0.609,0.640,-5.432,4.395,-0.977
0.557,-0.605,0.647,-4.211,2.808,-1.099
0.553,-0.609,0.646,-2.258,0.305,-1.587
0.548,-0.614,0.637,0.122,-2.747,-1.526
0.768,-0.478,1.368,38.147,23.437,-4.395
0.808,-0.423,1.416,44.922,31.677,-6.653
0.837,-0.354,1.515,51.819,37.903,-7.629
0.870,-0.378,1.636,60.791,42.236,-10.376
0.892,-0.327,1.700,73.059,47.119,-13.000
0.914,-0.267,1.750,89.355,49.988,-13.489
0.967,-0.266,1.758,111.206,47.485,-18.982
0.975,-0.271,1.712,133.240,38.330,-28.381
0.918,-0.288,1.644,151.672,24.353,-35.767
0.795,-0.359,1.505,169.861,16.052,-42.786
0.599,-0.492,1.250,187.805,23.132,-48.401
0.468,-0.528,0.947,200.989,49.500,-46.570
0.418,-0.501,0.681,207.581,82.581,-41.199
0.434,-0.496,0.510,211.060,108.521,-38.147
0.401,-0.491,0.388,215.393,121.033,-40.344
0.339,-0.479,0.202,226.196,121.033,-45.776
0.217,-0.509,-0.142,241.150,115.845,-49.744
0.043,-0.451,-0.665,249.695,106.262,-50.903
-0.150,-0.445,-1.205,251.587,89.050,-50.720
-0.356,-0.464,-1.754,243.347,63.477,-49.500
-0.611,-0.455,-2.267,227.112,36.743,-45.105
-0.776,-0.499,-2.638,203.491,16.541,-35.828
-0.756,-0.519,-2.730,168.274,4.150,-16.846
-0.575,-0.535,-2.470,124.756,-1.343,3.235
-0.263,-0.499,-1.974,77.209,1.465,22.766
0.092,-0.462,-1.365,35.828,8.118,35.828
0.406,-0.471,-0.821,7.141,11.536,40.710
0.647,-0.526,-0.389,-9.827,8.850,40.466
0.814,-0.589,-0.101,-19.897,3.540,35.706
0.904,-0.650,0.065,-26.062,-1.038,29.114
0.900,-0.720,0.108,-29.358,-4.089,21.362
0.832,-0.787,0.049,-30.457,-5.859,15.320
0.736,-0.836,-0.073,-32.288,-6.653,11.292
0.631,-0.876,-0.213,-36.560,-5.432,9.644
0.531,-0.893,-0.339,-45.105,-3.296,9.888
0.458,-0.906,-0.420,-56.824,-1.892,11.353
0.425,-0.895,-0.469,-69.580,-1.587,12.390
0.439,-0.858,-0.451,-80.627,-3.723,13.306
0.448,-0.844,-0.389,-87.769,-9.399,12.512
0.498,-0.817,-0.281,-91.919,-16.296,11.047
0.567,-0.781,-0.112,-92.285,-24.231,10.681
0.606,-0.790,0.018,-85.449,-30.945,7.568
0.609,-0.780,0.077,-74.585,-36.072,4.272
0.600,-0.805,0.095,-62.622,-39.124,2.869
0.568,-0.816,0.073,-52.795,-39.429,3.601
0.543,-0.799,0.037,-46.631,-36.560,4.700
0.522,-0.798,-0.004,-42.603,-31.189,6.287
0.504,-0.777,-0.068,-43.762,-24.048,8.240
0.559,-0.759,-0.056,-50.842,-19.104,8.972
0.621,-0.714,0.002,-58.838,-22.095,9.338
0.658,-0.733,0.105,-64.209,-30.212,6.653
0.666,-0.730,0.218,-67.261,-40.039,0.061
0.656,-0.757,0.314,-67.566,-47.791,-5.981
0.624,-0.791,0.363,-64.209,-51.147,-10.559
0.584,-0.815,0.372,-58.594,-47.974,-9.766
0.547,-0.823,0.342,-52.795,-38.147,-6.287
0.504,-0.826,0.278,-49.622,-23.315,-2.380
0.472,-0.829,0.216,-49.805,-4.822,1.648
0.496,-0.807,0.192,-54.810,14.160,7.385
0.535,-0.767,0.214,-61.829,27.954,11.963
0.564,-0.747,0.209,-68.481,35.095,12.939
0.601,-0.736,0.214,-73.181,35.278,10.315
0.623,-0.708,0.235,-76.355,24.231,5.554
0.634,-0.718,0.255,-77.209,2.441,-0.610
0.614,-0.722,0.291,-76.843,-26.184,-5.737
0.567,-0.726,0.346,-73.975,-52.124,-8.362
0.509,-0.753,0.409,-68.359,-65.857,-9.705
0.479,-0.747,0.419,-62.256,-62.927,-8.423
0.487,-0.745,0.424,-56.946,-48.523,-2.625
0.527,-0.697,0.444,-56.213,-29.114,3.723
0.548,-0.695,0.473,-58.044,-10.498,5.981
0.550,-0.683,0.458,-58.228,4.944,4.395
0.559,-0.695,0.448,-55.725,16.418,4.089
0.589,-0.671,0.459,-54.932,18.555,4.761
0.599,-0.680,0.473,-55.054,10.559,2.563
0.587,-0.703,0.486,-53.406,-1.709,-0.366
0.567,-0.701,0.498,-51.270,-12.451,-0.793
0.570,-0.719,0.528,-47.302,-20.752,0.671
0.529,-0.711,0.520,-39.856,-23.315,4.089
0.532,-0.704,0.506,-37.781,-21.973,4.395
0.516,-0.695,0.477,-34.058,-14.343,5.676
0.523,-0.697,0.457,-31.738,-3.967,6.348
0.524,-0.692,0.426,-32.715,6.348,7.324
0.537,-0.675,0.418,-35.706,13.855,8.850
0.563,-0.665,0.443,-38.940,15.991,10.315
0.591,-0.655,0.477,-40.955,11.414,10.925
0.607,-0.651,0.494,-41.016,1.038,9.888
0.610,-0.654,0.513,-39.612,-11.658,7.751
0.607,-0.652,0.542,-37.476,-22.766,5.615
0.581,-0.658,0.559,-33.691,-29.175,3.906
0.561,-0.673,0.556,-29.602,-29.358,3.906
0.555,-0.659,0.546,-25.696,-23.926,5.615
0.556,-0.653,0.545,-24.109,-16.785,7.568
0.561,-0.663,0.527,-23.621,-9.399,8.545
0.576,-0.636,0.492,-25.330,-3.113,9.644
0.595,-0.623,0.503,-29.663,0.000,10.437
0.608,-0.613,0.533,-33.142,-1.038,9.399
0.617,-0.608,0.550,-33.997,-6.348,7.080
0.605,-0.626,0.568,-33.386,-15.137,4.089
0.591,-0.633,0.579,-31.921,-24.475,1.953
0.557,-0.643,0.606,-28.198,-29.724,0.916
0.543,-0.648,0.552,-22.339,-28.198,2.258
0.540,-0.644,0.571,-21.118,-27.039,4.822
0.532,-0.630,0.540,-16.785,-20.874,6.836
0.545,-0.631,0.512,-14.282,-14.099,8.362
0.577,-0.587,0.501,-17.822,-8.545,9.338
0.610,-0.567,0.578,-26.245,-6.226,7.935
0.626,-0.581,0.646,-31.189,-7.507,3.662
0.633,-0.592,0.695,-30.701,-13.550,0.122
0.622,-0.603,0.758,-27.893,-23.193,-1.770
0.610,-0.613,0.796,-23.132,-30.884,-2.686
0.597,-0.624,0.797,-15.808,-34.119,-2.197
0.579,-0.621,0.782,-9.705,-32.654,-0.549
0.558,-0.628,0.758,-4.944,-26.123,0.793
0.542,-0.637,0.717,-0.793,-17.212,2.197
0.541,-0.635,0.676,0.732,-9.094,4.517
0.551,-0.624,0.640,-0.366,-3.052,5.737
0.557,-0.622,0.617,-3.601,0.671,5.188
0.560,-0.619,0.625,-7.446,1.099,3.540
0.760,-0.550,1.352,84.717,20.020,-18.860
0.750,-0.578,1.450,97.046,20.752,-23.193
0.732,-0.550,1.571,109.863,17.578,-26.428
0.670,-0.548,1.610,128.784,14.282,-26.428
0.646,-0.554,1.528,152.161,13.550,-25.818
0.628,-0.485,1.442,172.852,12.390,-21.973
0.552,-0.438,1.276,191.589,13.367,-19.165
0.421,-0.461,0.932,210.876,26.550,-19.287
0.320,-0.457,0.528,226.257,54.871,-12.756
0.203,-0.446,0.093,234.192,90.149,-5.798
0.084,-0.488,-0.443,236.938,124.756,-3.723
0.031,-0.514,-0.967,234.375,146.606,0.488
0.043,-0.492,-1.354,225.220,142.517,6.897
0.087,-0.484,-1.621,210.999,114.563,8.362
0.112,-0.447,-1.774,190.674,73.730,5.066
0.154,-0.441,-1.796,166.870,31.921,-0.793
0.189,-0.471,-1.672,143.250,-1.221,-4.272
0.244,-0.514,-1.451,119.751,-19.409,-4.883
0.310,-0.547,-1.206,96.069,-21.973,-2.258
0.395,-0.594,-0.972,74.341,-11.414,2.197
0.469,-0.646,-0.755,51.453,4.395,5.554
0.541,-0.689,-0.550,30.823,19.897,7.690
0.576,-0.726,-0.392,15.259,30.701,7.812
0.607,-0.785,-0.278,3.052,34.546,5.432
0.621,-0.826,-0.196,-5.188,31.677,3.174
0.608,-0.851,-0.150,-9.949,24.231,0.610
0.536,-0.861,-0.169,-13.367,14.771,-3.479
0.478,-0.914,-0.201,-17.578,7.385,-6.409
0.415,-0.906,-0.231,-23.804,3.601,-5.371
0.361,-0.887,-0.272,-30.334,3.784,-3.601
0.339,-0.881,-0.328,-35.706,7.019,-0.916
0.366,-0.872,-0.332,-40.894,10.681,2.930
0.398,-0.838,-0.290,-45.288,11.719,7.080
0.418,-0.820,-0.237,-47.241,10.498,9.766
0.453,-0.811,-0.194,-44.861,8.484,11.780
0.506,-0.801,-0.162,-39.795,5.371,13.367
0.540,-0.775,-0.149,-33.142,0.977,13.367
0.550,-0.783,-0.169,-27.649,-3.418,11.230
0.544,-0.791,-0.204,-24.109,-7.629,10.498
0.550,-0.768,-0.230,-23.010,-12.268,10.986
0.561,-0.758,-0.241,-23.804,-16.541,10.620
0.582,-0.754,-0.250,-25.757,-20.203,8.972
0.589,-0.760,-0.228,-30.823,-24.109,8.240
0.603,-0.756,-0.115,-36.804,-28.259,6.653
0.602,-0.756,-0.023,-36.987,-26.367,6.592
0.621,-0.783,0.031,-37.170,-21.545,5.981
0.656,-0.802,0.090,-37.720,-16.113,6.531
0.677,-0.802,0.153,-36.682,-13.916,8.301
0.678,-0.820,0.175,-34.729,-12.329,7.629
0.661,-0.833,0.160,-33.325,-10.437,6.165
0.653,-0.841,0.138,-32.898,-9.888,5.310
0.657,-0.841,0.119,-33.508,-11.169,4.089
0.651,-0.845,0.093,-35.583,-13.550,1.160
0.648,-0.850,0.093,-38.269,-17.639,-2.319
0.635,-0.843,0.125,-40.100,-21.973,-5.066
0.620,-0.849,0.207,-39.368,-25.635,-7.141
0.604,-0.850,0.255,-36.377,-25.330,-8.545
0.597,-0.866,0.273,-31.738,-21.545,-7.446
0.599,-0.857,0.271,-27.588,-15.991,-4.578
0.594,-0.860,0.261,-24.963,-10.437,-3.052
0.591,-0.861,0.231,-23.437,-5.432,-2.319
0.584,-0.848,0.200,-23.010,-1.648,-1.526
0.572,-0.845,0.162,-22.583,0.916,-1.526
0.568,-0.845,0.111,-22.400,2.747,-2.014
0.563,-0.833,0.080,-23.132,3.540,-2.380
0.556,-0.830,0.059,-24.536,3.113,-2.563
0.553,-0.823,0.067,-25.879,1.831,-3.113
0.554,-0.815,0.082,-26.062,0.061,-3.174
0.552,-0.818,0.108,-25.513,-1.709,-2.686
0.566,-0.814,0.139,-25.757,-2.075,-1.282
0.577,-0.808,0.168,-25.940,-0.854,-0.244
0.582,-0.812,0.184,-25.818,1.221,-0.244
0.575,-0.818,0.179,-24.536,2.441,0.244
0.565,-0.821,0.146,-23.071,2.136,1.038
0.556,-0.815,0.107,-23.071,1.404,1.526
0.539,-0.814,0.064,-24.475,1.221,1.587
0.524,-0.812,0.032,-26.794,2.014,1.221
0.531,-0.800,0.017,-29.480,2.441,1.160
0.543,-0.787,0.043,-32.532,1.221,0.610
0.558,-0.785,0.092,-35.645,-1.343,-0.732
0.562,-0.787,0.160,-36.255,-4.761,-2.014
0.577,-0.790,0.220,-34.302,-8.667,-2.075
0.585,-0.796,0.266,-31.494,-13.000,-1.038
0.586,-0.801,0.280,-28.015,-15.930,-0.183
0.583,-0.802,0.279,-25.085,-16.357,0.549
0.571,-0.808,0.263,-23.437,-14.160,0.916
0.548,-0.814,0.220,-23.621,-10.254,0.671
0.529,-0.820,0.172,-24.658,-5.859,0.671
0.527,-0.809,0.141,-27.588,-1.038,1.709
0.519,-0.801,0.128,-31.128,1.221,2.380
0.521,-0.799,0.119,-33.875,1.770,2.319
0.527,-0.783,0.149,-36.621,-0.061,2.686
0.534,-0.774,0.196,-38.513,-3.296,2.075
0.541,-0.771,0.242,-37.537,-6.653,1.465
0.554,-0.771,0.266,-34.851,-10.864,2.258
0.568,-0.770,0.291,-31.921,-15.320,3.784
0.576,-0.764,0.311,-29.907,-18.555,4.944
0.564,-0.772,0.305,-27.954,-19.043,5.005
0.553,-0.776,0.278,-26.184,-16.846,5.371
0.541,-0.775,0.246,-25.330,-12.634,5.798
0.521,-0.785,0.209,-26.428,-7.080,5.920
0.521,-0.773,0.152,-30.029,-1.404,6.287
0.540,-0.753,0.138,-35.522,2.747,6.714
0.570,-0.737,0.159,-41.321,1.282,5.615
0.594,-0.728,0.233,-45.715,-7.080,2.197
0.594,-0.733,0.298,-47.791,-19.531,-1.770
0.589,-0.748,0.355,-45.471,-31.677,-3.357
0.595,-0.732,0.413,-42.053,-39.001,-2.625
0.591,-0.739,0.453,-38.818,-40.039,-2.014
0.571,-0.747,0.455,-35.156,-35.706,-1.343
0.560,-0.770,0.458,-32.349,-27.893,0.122
0.540,-0.737,0.384,-27.344,-18.677,2.258
0.551,-0.757,0.366,-29.053,-10.803,2.808
0.538,-0.734,0.313,-31.006,-4.272,2.686
0.555,-0.724,0.304,-34.363,1.221,2.502
0.575,-0.712,0.309,-38.574,1.709,1.343
0.594,-0.708,0.354,-42.358,-4.028,-0.610
0.595,-0.700,0.406,-44.434,-15.137,-3.052
0.580,-0.713,0.456,-42.603,-27.527,-4.333
0.738,-0.610,1.526,28.320,3.113,0.122
0.805,-0.599,1.737,38.879,9.460,-1.099
0.832,-0.586,1.911,53.955,14.465,-3.601
0.806,-0.617,2.003,76.050,23.621,-5.981
0.812,-0.611,1.993,101.074,35.828,-7.324
0.812,-0.578,1.958,121.582,43.762,-10.071
0.762,-0.500,1.929,139.404,50.293,-14.465
0.730,-0.531,1.859,154.236,51.880,-21.301
0.649,-0.499,1.698,167.542,49.988,-27.405
0.628,-0.423,1.630,178.589,42.236,-27.588
0.636,-0.342,1.624,187.500,28.198,-25.940
0.624,-0.255,1.551,201.416,15.930,-28.137
0.600,-0.237,1.408,214.722,11.597,-34.607
0.499,-0.259,1.236,230.408,19.348,-41.870
0.382,-0.305,0.958,247.864,38.269,-44.189
0.335,-0.326,0.563,261.536,66.528,-38.513
0.338,-0.189,0.130,270.020,97.107,-30.823
0.290,-0.112,-0.352,273.743,124.512,-29.236
0.169,-0.006,-0.963,273.254,147.095,-35.217
-0.070,0.045,-1.768,269.836,160.095,-46.875
-0.471,0.006,-2.716,263.062,151.062,-62.073
-0.891,-0.113,-3.403,239.380,111.328,-67.688
-1.210,-0.189,-3.807,204.834,58.899,-56.091
-1.162,-0.267,-3.833,157.593,9.155,-31.067
-0.853,-0.332,-3.099,93.811,-28.198,-0.427
-0.414,-0.331,-2.014,31.433,-34.424,30.518
0.070,-0.376,-1.003,-10.620,-13.367,53.528
0.518,-0.512,-0.273,-32.288,11.597,65.796
0.900,-0.636,0.228,-43.945,29.846,69.275
1.164,-0.728,0.524,-46.143,36.072,64.270
1.269,-0.804,0.614,-41.077,28.381,51.270
1.211,-0.887,0.505,-32.104,12.512,33.386
1.049,-0.955,0.281,-25.330,-2.258,16.357
0.843,-0.983,0.029,-25.574,-9.644,3.662
0.635,-0.990,-0.219,-31.616,-10.742,-3.174
0.484,-0.979,-0.420,-42.297,-10.315,-5.066
0.367,-0.943,-0.527,-54.810,-12.634,-6.165
0.286,-0.923,-0.544,-65.674,-16.296,-9.705
0.256,-0.893,-0.495,-72.998,-19.104,-11.475
0.271,-0.882,-0.426,-75.989,-20.996,-8.606
0.306,-0.852,-0.354,-76.721,-22.522,-3.967
0.351,-0.839,-0.267,-74.158,-23.682,2.563
0.390,-0.851,-0.200,-67.688,-24.231,6.104
0.456,-0.828,-0.163,-59.631,-24.902,7.690
0.485,-0.813,-0.158,-50.598,-25.696,9.888
0.493,-0.793,-0.207,-43.213,-26.917,10.925
0.499,-0.781,-0.271,-40.894,-27.832,9.399
0.518,-0.773,-0.265,-44.800,-27.771,6.348
0.507,-0.760,-0.196,-50.720,-28.870,3.784
0.503,-0.772,-0.102,-58.777,-30.151,1.282
0.517,-0.767,-0.008,-63.477,-30.518,0.854
0.540,-0.776,0.074,-64.209,-30.151,2.625
0.560,-0.777,0.130,-64.636,-28.076,3.052
0.562,-0.794,0.193,-66.101,-26.611,1.892
0.538,-0.827,0.225,-65.735,-26.062,0.977
0.494,-0.849,0.201,-62.927,-23.865,1.770
0.442,-0.857,0.152,-60.547,-19.104,4.578
0.422,-0.860,0.090,-59.753,-11.292,8.362
0.419,-0.830,0.059,-61.584,-4.150,12.695
0.439,-0.813,0.046,-65.857,0.488,14.771
0.454,-0.795,0.088,-72.388,0.183,14.709
0.490,-0.767,0.158,-78.735,-3.540,12.878
0.502,-0.767,0.262,-80.994,-8.850,10.986
0.531,-0.775,0.347,-78.796,-16.113,9.521
0.552,-0.774,0.412,-73.425,-23.499,9.705
0.553,-0.773,0.472,-68.298,-30.029,10.315
0.537,-0.783,0.493,-62.927,-31.372,10.315
0.506,-0.796,0.480,-57.251,-26.428,11.169
0.480,-0.806,0.437,-52.856,-17.334,13.123
0.464,-0.801,0.382,-51.880,-5.981,15.381
0.491,-0.780,0.325,-54.871,4.700,16.113
0.527,-0.735,0.329,-58.289,13.672,18.066
0.547,-0.745,0.356,-58.838,17.090,17.639
0.580,-0.745,0.385,-58.899,13.123,14.343
0.594,-0.733,0.476,-58.472,0.977,12.146
0.595,-0.754,0.530,-53.894,-13.000,10.071
0.591,-0.762,0.559,-46.814,-26.001,9.827
0.571,-0.767,0.546,-39.429,-32.898,10.376
0.545,-0.784,0.517,-33.508,-31.677,11.047
0.515,-0.777,0.463,-29.663,-21.790,12.939
0.508,-0.807,0.438,-28.137,-6.958,15.015
0.491,-0.779,0.344,-25.757,7.690,18.799
0.521,-0.757,0.301,-32.593,20.752,19.775
0.565,-0.723,0.281,-39.978,28.198,18.250
0.624,-0.705,0.316,-44.006,30.212,17.944
0.655,-0.663,0.336,-45.044,20.935,15.259
0.679,-0.683,0.375,-44.861,1.099,9.033
0.670,-0.687,0.410,-45.776,-20.996,3.113
0.648,-0.702,0.465,-46.021,-38.940,-1.221
0.603,-0.716,0.497,-43.030,-50.049,-3.540
0.574,-0.726,0.510,-39.124,-52.734,-3.662
0.550,-0.722,0.503,-35.828,-46.936,-1.892
0.544,-0.718,0.491,-33.997,-34.912,1.221
0.549,-0.710,0.476,-33.508,-19.104,3.479
0.550,-0.701,0.452,-35.461,-3.723,4.578
0.566,-0.688,0.427,-39.001,9.277,4.517
0.588,-0.665,0.425,-42.908,15.991,3.174
0.595,-0.668,0.440,-46.631,12.939,-0.366
0.599,-0.671,0.469,-48.401,2.075,-3.479
0.592,-0.670,0.506,-48.767,-13.062,-5.066
0.585,-0.680,0.540,-47.668,-27.649,-6.653
0.564,-0.685,0.566,-44.067,-38.635,-7.568
0.551,-0.677,0.594,-39.917,-44.189,-7.080
0.545,-0.691,0.617,-35.217,-40.771,-5.981
0.540,-0.673,0.620,-32.715,-30.334,-4.517
0.539,-0.679,0.618,-31.311,-15.381,-3.662
0.545,-0.664,0.599,-31.433,0.854,-2.197
0.551,-0.659,0.585,-32.898,15.930,-0.732
0.568,-0.654,0.572,-34.607,24.170,0.183
0.574,-0.653,0.570,-35.645,23.743,-0.122
0.575,-0.660,0.570,-34.851,16.846,-1.648
0.578,-0.657,0.582,-33.142,5.859,-2.747
0.576,-0.658,0.608,-31.799,-5.920,-3.174
0.558,-0.661,0.636,-29.358,-15.015,-3.845
0.539,-0.668,0.651,-25.818,-18.982,-4.150
0.523,-0.675,0.654,-21.790,-16.968,-3.540
0.522,-0.669,0.643,-17.944,-9.583,-1.160
0.521,-0.657,0.622,-15.137,0.305,1.648
0.526,-0.660,0.594,-14.282,9.644,3.052
0.781,-0.526,1.253,109.009,13.245,-7.996
0.779,-0.496,1.276,118.591,8.911,-13.123
0.744,-0.485,1.281,128.845,4.089,-23.682
0.684,-0.504,1.303,142.700,-3.052,-32.593
0.629,-0.529,1.408,155.945,-12.146,-36.133
0.576,-0.521,1.455,169.556,-16.907,-36.560
0.512,-0.512,1.390,186.523,-7.263,-33.752
0.459,-0.504,1.221,204.163,15.991,-28.076
0.394,-0.477,0.947,221.130,51.270,-21.484
0.333,-0.433,0.616,237.061,89.600,-14.404
0.240,-0.406,0.212,251.831,121.765,-9.277
0.078,-0.376,-0.326,262.085,144.714,-4.883
-0.090,-0.310,-0.985,263.611,161.804,-1.343
-0.350,-0.265,-1.753,256.042,172.913,3.296
-0.615,-0.280,-2.517,240.051,170.898,5.798
-0.860,-0.162,-3.094,212.891,150.146,12.390
-0.902,-0.272,-3.429,178.650,109.802,18.738
-0.685,-0.321,-3.255,134.155,54.382,29.663
-0.316,-0.323,-2.617,81.970,5.493,42.847
0.073,-0.303,-1.688,29.907,-20.874,47.485
0.372,-0.335,-0.838,-5.188,-21.301,48.157
0.632,-0.473,-0.157,-26.306,-8.118,44.312
0.843,-0.612,0.251,-38.757,8.850,42.786
0.983,-0.700,0.478,-43.396,22.583,44.434
1.045,-0.755,0.500,-41.565,32.532,44.067
1.017,-0.801,0.360,-35.645,38.391,39.551
0.924,-0.863,0.151,-29.846,36.682,32.837
0.783,-0.896,-0.088,-27.832,29.785,24.597
0.631,-0.936,-0.311,-32.166,18.921,16.663
0.508,-0.937,-0.477,-41.931,7.263,7.568
0.407,-0.944,-0.567,-54.077,-2.686,-4.333
0.365,-0.931,-0.559,-65.063,-13.306,-9.644
0.352,-0.906,-0.504,-72.144,-22.827,-8.606
0.373,-0.876,-0.390,-73.853,-28.625,-6.897
0.405,-0.857,-0.260,-69.763,-31.982,-5.859
0.463,-0.849,-0.135,-59.509,-33.203,-5.066
0.511,-0.834,-0.057,-44.556,-33.325,-3.662
0.539,-0.821,-0.046,-31.311,-32.898,-2.197
0.542,-0.842,-0.065,-21.790,-31.860,-1.709
0.537,-0.810,-0.112,-18.127,-30.273,-1.099
0.520,-0.817,-0.173,-16.052,-26.306,1.099
0.519,-0.799,-0.187,-21.667,-24.109,2.991
0.555,-0.787,-0.195,-25.940,-23.499,4.272
0.584,-0.768,-0.152,-29.297,-23.804,5.493
0.618,-0.763,-0.099,-35.522,-25.330,3.113
0.641,-0.775,-0.012,-42.297,-27.161,-2.258
0.641,-0.806,0.055,-44.617,-29.175,-5.615
0.626,-0.832,0.077,-43.213,-28.748,-6.226
0.605,-0.842,0.069,-41.443,-26.245,-5.554
0.579,-0.859,0.044,-40.100,-21.545,-4.395
0.542,-0.867,-0.000,-40.527,-14.893,-2.075
0.510,-0.861,-0.045,-42.969,-7.263,1.404
0.521,-0.842,-0.060,-46.448,-0.916,4.517
0.521,-0.834,-0.062,-50.781,4.944,6.714
0.549,-0.819,-0.058,-56.335,8.423,7.202
0.585,-0.800,-0.005,-62.317,6.104,6.287
0.632,-0.787,0.066,-65.308,-0.977,3.906
0.643,-0.778,0.114,-65.918,-10.498,-0.122
0.630,-0.782,0.158,-65.186,-22.339,-4.456
0.606,-0.788,0.188,-61.462,-33.813,-7.019
0.572,-0.794,0.197,-56.335,-41.809,-7.446
0.549,-0.801,0.180,-51.636,-42.908,-6.409
0.533,-0.791,0.179,-48.706,-38.940,-4.028
0.529,-0.782,0.191,-46.631,-31.006,-1.160
0.538,-0.777,0.192,-44.556,-21.606,1.526
0.554,-0.767,0.198,-44.434,-13.855,3.174
0.581,-0.767,0.208,-45.654,-9.460,3.601
0.605,-0.751,0.241,-47.302,-9.033,3.723
0.616,-0.755,0.268,-48.523,-12.024,1.892
0.622,-0.764,0.286,-48.523,-16.785,-0.061
0.616,-0.756,0.314,-49.194,-22.583,-0.854
0.588,-0.755,0.338,-48.401,-25.940,-1.709
0.556,-0.794,0.331,-44.067,-23.804,-1.709
0.521,-0.791,0.300,-40.955,-17.517,1.282
0.500,-0.790,0.270,-39.307,-7.690,6.470
0.508,-0.774,0.238,-39.429,4.211,11.780
0.517,-0.760,0.206,-42.480,16.907,15.015
0.542,-0.748,0.208,-46.570,25.269,17.090
0.584,-0.722,0.219,-51.025,27.344,17.700
0.635,-0.703,0.260,-54.810,24.048,16.541
0.664,-0.692,0.304,-57.373,15.503,12.878
0.662,-0.708,0.324,-57.495,3.662,7.751
0.643,-0.751,0.361,-55.908,-7.751,3.967
0.621,-0.703,0.300,-47.607,-16.541,3.235
0.615,-0.740,0.318,-47.424,-21.606,1.892
0.582,-0.727,0.317,-48.279,-25.513,1.587
0.568,-0.734,0.316,-45.959,-23.926,4.089
0.578,-0.709,0.326,-44.617,-20.569,5.432
0.602,-0.693,0.351,-45.654,-15.625,5.981
0.615,-0.686,0.378,-48.157,-10.986,3.967
0.628,-0.688,0.400,-50.476,-6.958,1.099
0.636,-0.684,0.432,-52.490,-6.470,-1.343
0.642,-0.689,0.466,-52.856,-10.559,-2.869
0.631,-0.694,0.483,-49.683,-18.555,-4.395
0.622,-0.713,0.488,-45.227,-28.198,-5.127
0.600,-0.697,0.489,-41.321,-37.292,-4.639
0.567,-0.706,0.480,-36.865,-43.579,-4.211
0.535,-0.736,0.469,-33.020,-45.410,-3.662
0.547,-0.711,0.480,-32.898,-42.725,-1.709
0.539,-0.704,0.497,-34.241,-37.415,0.488
0.544,-0.698,0.501,-36.194,-29.053,0.427
0.559,-0.685,0.522,-39.551,-19.043,0.854
0.569,-0.661,0.557,-43.823,-9.338,0.854
0.579,-0.675,0.602,-46.814,-0.732,-0.061
0.570,-0.667,0.617,-46.204,6.653,-1.160
0.557,-0.691,0.592,-41.748,9.644,-1.648
0.546,-0.694,0.544,-36.011,6.958,-0.549
0.545,-0.691,0.497,-31.677,1.221,1.526
0.545,-0.682,0.470,-30.029,-5.188,3.296
0.549,-0.669,0.465,-30.090,-10.681,3.540
0.547,-0.657,0.475,-31.555,-15.198,2.197
0.545,-0.657,0.486,-33.264,-18.677,-0.671
0.544,-0.652,0.505,-34.973,-20.142,-2.136
0.538,-0.649,0.530,-36.133,-19.958,-3.052
0.538,-0.651,0.537,-35.156,-17.456,-3.296
0.543,-0.647,0.561,-34.424,-14.099,-1.587
0.552,-0.638,0.584,-34.241,-11.597,-0.305
0.555,-0.630,0.601,-32.776,-9.644,0.244
0.537,-0.634,0.612,-30.518,-8.911,-0.183
0.863,-0.621,1.531,64.331,2.319,-21.545
0.874,-0.629,1.694,76.721,-4.639,-25.574
0.845,-0.612,1.818,91.553,-10.986,-25.940
0.769,-0.625,1.814,109.802,-14.099,-26.123
0.713,-0.616,1.741,129.211,-11.780,-21.301
0.690,-0.573,1.724,143.005,-7.996,-11.414
0.656,-0.533,1.722,153.748,-3.052,-3.845
0.660,-0.444,1.691,164.978,3.235,0.122
0.637,-0.389,1.579,179.260,10.071,-1.221
0.566,-0.393,1.411,194.824,20.386,-5.432
0.515,-0.364,1.298,208.130,32.898,-5.066
0.512,-0.328,1.135,222.656,49.255,-3.967
0.492,-0.340,0.930,237.793,66.956,-2.930
0.473,-0.326,0.663,248.413,85.510,-1.953
0.429,-0.318,0.348,258.606,107.971,-3.601
0.364,-0.271,-0.037,268.738,127.197,-6.042
0.228,-0.275,-0.474,274.780,134.094,-9.705
0.058,-0.231,-1.021,273.376,128.540,-13.794
-0.220,-0.139,-1.616,266.479,114.502,-13.062
-0.491,-0.128,-2.288,254.333,97.168,-11.414
-0.744,-0.095,-2.933,231.262,80.261,-7.996
-0.895,-0.085,-3.351,194.519,61.707,-1.770
-0.809,-0.146,-3.353,151.672,37.659,9.216
-0.536,-0.210,-2.913,104.309,11.169,24.048
-0.140,-0.266,-2.145,51.453,-11.353,33.569
0.191,-0.304,-1.290,4.761,-24.719,35.645
0.468,-0.427,-0.581,-25.818,-25.269,34.973
0.704,-0.559,-0.054,-43.945,-19.409,33.752
0.887,-0.671,0.280,-50.476,-11.597,33.020
1.002,-0.778,0.443,-49.683,-3.418,30.579
1.001,-0.826,0.428,-45.776,3.906,26.245
0.930,-0.873,0.286,-41.687,9.277,20.325
0.820,-0.911,0.085,-39.551,12.512,15.991
0.708,-0.911,-0.116,-41.138,13.977,11.536
0.586,-0.911,-0.276,-47.485,12.939,5.066
0.489,-0.911,-0.392,-56.396,9.766,-5.676
0.402,-0.914,-0.459,-66.467,4.578,-11.353
0.358,-0.894,-0.470,-77.637,-1.160,-11.963
0.359,-0.858,-0.446,-83.130,-5.432,-10.559
0.375,-0.816,-0.386,-78.247,-8.911,-8.301
0.416,-0.819,-0.271,-69.519,-12.390,-6.470
0.471,-0.805,-0.170,-58.594,-15.503,-6.226
0.510,-0.812,-0.114,-46.265,-16.357,-5.676
0.547,-0.814,-0.086,-36.072,-16.357,-4.517
0.565,-0.817,-0.075,-30.884,-17.029,-3.784
0.562,-0.823,-0.090,-29.114,-17.883,-3.662
0.533,-0.829,-0.123,-29.053,-17.395,-3.296
0.529,-0.831,-0.170,-31.799,-15.930,-3.357
0.531,-0.823,-0.193,-36.438,-14.587,-3.479
0.556,-0.823,-0.156,-44.800,-14.954,-3.113
0.575,-0.810,-0.096,-51.392,-15.564,-2.625
0.580,-0.803,-0.038,-55.603,-15.198,-3.296
0.598,-0.815,0.031,-58.838,-14.099,-4.639
0.605,-0.822,0.081,-58.411,-12.268,-4.456
0.600,-0.838,0.096,-55.298,-10.681,-3.845
0.583,-0.848,0.082,-52.551,-9.216,-3.174
0.561,-0.851,0.059,-50.964,-7.568,-0.854
0.536,-0.843,0.031,-50.842,-5.188,1.465
0.487,-0.845,0.002,-51.453,-2.930,2.869
0.444,-0.866,-0.042,-54.199,-0.244,3.967
0.449,-0.827,-0.037,-59.143,2.136,5.981
0.492,-0.809,0.004,-62.744,3.357,8.850
0.529,-0.780,0.061,-66.589,2.991,9.888
0.555,-0.784,0.117,-70.740,0.000,8.484
0.573,-0.775,0.169,-72.327,-4.700,5.859
0.590,-0.772,0.215,-70.435,-12.268,3.052
0.573,-0.788,0.248,-65.735,-21.484,0.671
0.543,-0.809,0.249,-59.326,-28.748,-0.549
0.505,-0.818,0.221,-53.467,-31.799,0.427
0.501,-0.818,0.204,-48.889,-30.334,3.601
0.508,-0.798,0.208,-47.241,-25.879,8.118
0.523,-0.790,0.217,-47.241,-20.142,10.376
0.545,-0.778,0.221,-47.913,-13.245,11.230
0.575,-0.763,0.245,-50.415,-8.423,11.536
0.602,-0.760,0.276,-52.673,-6.104,9.888
0.614,-0.759,0.313,-54.504,-5.676,7.629
0.613,-0.772,0.338,-53.650,-5.920,5.371
0.614,-0.779,0.344,-51.697,-6.958,3.784
0.591,-0.787,0.333,-49.683,-9.399,2.991
0.576,-0.799,0.320,-46.936,-11.292,3.418
0.570,-0.789,0.306,-45.044,-11.169,5.005
0.564,-0.779,0.301,-44.312,-10.132,6.958
0.549,-0.779,0.294,-44.128,-8.179,7.629
0.540,-0.779,0.286,-44.617,-4.944,8.301
0.547,-0.768,0.283,-44.922,-1.953,8.911
0.574,-0.746,0.288,-46.265,-1.343,8.911
0.593,-0.743,0.314,-48.035,-4.456,6.775
0.592,-0.745,0.335,-49.255,-9.766,3.418
0.590,-0.755,0.344,-49.072,-15.320,0.244
0.598,-0.745,0.381,-48.462,-20.508,-0.488
0.594,-0.727,0.413,-47.729,-25.513,-0.427
0.598,-0.752,0.433,-45.349,-27.832,-2.014
0.559,-0.770,0.428,-38.940,-25.513,-1.282
0.566,-0.755,0.434,-40.527,-23.804,-0.977
0.564,-0.750,0.451,-39.063,-20.203,2.380
0.565,-0.746,0.459,-37.781,-17.029,2.563
0.553,-0.749,0.447,-37.476,-13.062,1.709
0.554,-0.741,0.435,-36.926,-9.216,1.099
0.554,-0.736,0.431,-36.865,-6.042,0.549
0.553,-0.737,0.426,-36.865,-4.150,0.305
0.538,-0.741,0.421,-36.682,-2.380,0.671
0.533,-0.740,0.404,-37.048,0.488,2.075
0.556,-0.717,0.403,-38.208,3.418,3.906
0.572,-0.692,0.435,-40.466,2.686,4.333
0.563,-0.701,0.472,-41.565,0.305,2.319
0.552,-0.719,0.477,-40.344,-1.709,0.610
0.551,-0.710,0.473,-38.757,-3.723,1.831
0.555,-0.699,0.483,-37.903,-6.653,3.174
0.549,-0.702,0.479,-36.072,-7.935,2.686
0.552,-0.697,0.473,-34.119,-7.263,1.648
0.556,-0.689,0.481,-33.264,-7.385,2.075
0.562,-0.692,0.485,-33.142,-8.362,1.831
0.558,-0.693,0.478,-32.776,-8.789,1.221
0.557,-0.686,0.475,-33.142,-8.057,0.488
0.551,-0.684,0.480,-34.180,-7.202,-0.122
0.544,-0.685,0.492,-34.485,-5.310,-0.793
0.560,-0.673,0.511,-34.424,-3.479,-0.549
0.563,-0.662,0.556,-33.875,-4.822,-0.366
0.556,-0.676,0.558,-30.640,-8.606,-1.648
0.730,-0.558,1.526,36.133,12.268,1.160
0.760,-0.558,1.687,53.711,22.034,0.427
0.775,-0.556,1.808,73.669,34.241,0.366
0.781,-0.533,1.918,92.407,44.922,2.258
0.790,-0.496,1.927,110.474,53.650,3.845
0.785,-0.501,1.870,126.953,58.777,3.601
0.761,-0.483,1.759,139.099,61.401,2.075
0.729,-0.473,1.590,148.315,65.125,-1.587
0.669,-0.478,1.437,157.349,66.284,-5.066
0.643,-0.452,1.287,168.335,63.538,-6.653
0.624,-0.419,1.132,176.758,52.673,-10.742
0.617,-0.386,0.956,184.692,37.903,-20.386
0.579,-0.366,0.872,192.444,22.339,-24.048
0.535,-0.369,0.823,197.754,9.583,-26.001
0.525,-0.378,0.785,204.651,9.827,-27.710
0.536,-0.347,0.792,213.135,18.799,-23.865
0.553,-0.343,0.761,224.182,30.640,-22.949
0.568,-0.364,0.633,235.352,41.748,-22.766
0.554,-0.360,0.439,243.469,52.185,-22.217
0.457,-0.319,0.106,251.343,63.416,-24.841
0.343,-0.297,-0.298,259.827,72.571,-26.611
0.207,-0.237,-0.749,262.146,76.721,-25.330
0.048,-0.172,-1.258,257.385,75.684,-26.978
-0.159,-0.126,-1.849,250.977,70.984,-29.114
-0.416,-0.152,-2.416,237.183,59.204,-29.114
-0.624,-0.219,-2.887,210.876,44.617,-25.879
-0.708,-0.213,-3.144,172.852,26.794,-14.404
-0.589,-0.242,-3.019,127.014,3.845,0.977
-0.304,-0.274,-2.519,75.256,-18.005,15.991
0.017,-0.284,-1.817,23.010,-29.480,25.513
0.309,-0.328,-1.113,-17.883,-29.053,31.250
0.566,-0.425,-0.530,-43.396,-22.034,35.156
0.752,-0.501,-0.117,-58.350,-13.367,35.095
0.896,-0.580,0.130,-66.223,-5.188,33.020
0.950,-0.642,0.219,-68.542,0.854,28.992
0.917,-0.716,0.177,-65.979,5.005,23.132
0.831,-0.777,0.055,-63.538,5.859,17.639
0.730,-0.822,-0.100,-64.758,6.348,14.160
0.620,-0.857,-0.257,-70.801,7.202,11.597
0.527,-0.882,-0.380,-81.299,9.094,9.094
0.466,-0.877,-0.432,-92.834,11.536,5.554
0.430,-0.892,-0.441,-103.271,12.085,2.014
0.409,-0.860,-0.402,-108.521,11.658,0.854
0.432,-0.863,-0.316,-108.215,9.583,1.526
0.484,-0.825,-0.186,-101.624,6.042,4.150
0.543,-0.839,-0.028,-90.820,0.977,4.578
0.564,-0.811,0.054,-77.576,-3.601,2.930
0.596,-0.835,0.111,-63.171,-6.958,1.892
0.589,-0.823,0.102,-49.683,-9.033,2.930
0.572,-0.819,0.052,-40.833,-10.559,3.113
0.556,-0.833,0.006,-36.804,-11.047,3.235
0.547,-0.814,-0.030,-37.964,-10.376,3.784
0.537,-0.811,-0.050,-42.175,-9.338,4.028
0.544,-0.803,-0.049,-48.584,-8.911,2.869
0.566,-0.795,-0.005,-55.298,-10.315,1.770
0.602,-0.791,0.061,-61.157,-13.977,0.122
0.605,-0.795,0.146,-64.331,-18.738,-2.075
0.590,-0.809,0.197,-63.660,-23.071,-4.028
0.582,-0.838,0.203,-60.242,-24.475,-4.639
0.548,-0.842,0.198,-56.824,-22.888,-3.235
0.538,-0.852,0.177,-54.626,-17.456,-0.610
0.531,-0.844,0.172,-53.406,-9.705,3.357
0.521,-0.838,0.161,-54.810,-1.831,6.958
0.511,-0.833,0.126,-56.580,6.653,8.667
0.515,-0.822,0.111,-59.204,13.550,10.803
0.549,-0.801,0.119,-62.500,15.991,13.062
0.590,-0.771,0.144,-65.613,12.451,12.817
0.627,-0.759,0.194,-69.824,4.272,9.888
0.643,-0.759,0.269,-71.716,-6.470,5.737
0.635,-0.761,0.341,-69.275,-18.250,0.977
0.610,-0.784,0.396,-64.148,-28.198,-2.014
0.575,-0.797,0.412,-57.068,-33.447,-1.892
0.549,-0.793,0.397,-51.025,-31.555,0.977
0.536,-0.785,0.377,-46.265,-23.254,5.005
0.536,-0.773,0.351,-44.556,-10.498,8.728
0.556,-0.765,0.343,-44.983,2.197,11.230
0.571,-0.747,0.338,-47.119,11.963,13.000
0.588,-0.743,0.336,-47.607,17.700,12.695
0.643,-0.726,0.344,-48.523,17.517,10.742
0.651,-0.708,0.348,-48.523,10.559,7.690
0.661,-0.732,0.369,-47.119,-0.427,3.113
0.647,-0.733,0.387,-45.715,-11.780,-0.732
0.634,-0.745,0.424,-43.518,-23.560,-1.648
0.604,-0.748,0.428,-40.161,-32.043,-2.563
0.572,-0.763,0.417,-35.645,-34.119,-2.319
0.547,-0.755,0.389,-31.616,-29.297,-0.366
0.529,-0.753,0.359,-29.419,-19.836,2.563
0.536,-0.752,0.363,-29.480,-8.423,5.249
0.547,-0.710,0.336,-29.297,2.075,7.690
0.560,-0.723,0.335,-33.142,10.620,6.958
0.569,-0.716,0.312,-35.950,14.099,5.371
0.584,-0.715,0.310,-37.170,12.024,4.822
0.603,-0.705,0.331,-40.283,4.089,3.723
0.598,-0.698,0.366,-42.786,-5.676,1.648
0.583,-0.716,0.385,-43.701,-14.038,-1.038
0.557,-0.717,0.382,-42.847,-18.677,-2.014
0.544,-0.715,0.376,-41.260,-20.264,-0.732
0.536,-0.708,0.363,-40.161,-18.066,1.038
0.536,-0.699,0.359,-40.710,-13.245,3.418
0.528,-0.689,0.348,-42.236,-5.554,4.456
0.526,-0.690,0.322,-44.189,4.639,4.639
0.538,-0.667,0.299,-47.241,13.245,5.554
0.567,-0.646,0.327,-52.063,14.771,6.287
0.587,-0.635,0.368,-55.603,9.094,4.761
0.603,-0.632,0.421,-57.312,-2.380,1.892
0.616,-0.636,0.479,-56.580,-17.578,-1.221
0.607,-0.637,0.523,-53.284,-32.043,-3.357
0.592,-0.654,0.551,-48.218,-45.288,-4.456
0.566,-0.663,0.561,-42.603,-52.185,-4.395
0.551,-0.667,0.545,-37.476,-50.476,-3.052
0.543,-0.658,0.534,-35.034,-42.480,-1.038
0.532,-0.655,0.531,-33.569,-31.311,1.099
0.526,-0.650,0.513,-32.715,-19.226,2.808
0.533,-0.646,0.513,-32.837,-9.399,4.150
0.549,-0.632,0.523,-34.180,-5.066,5.371
0.558,-0.619,0.539,-35.400,-6.348,4.944
0.574,-0.621,0.561,-35.339,-12.878,2.930
0.582,-0.616,0.573,-34.546,-23.560,0.244
0.578,-0.619,0.603,-33.997,-36.194,-2.380
-0.476,-0.452,-2.248,209.229,9.460,-11.047
-0.501,-0.515,-2.413,178.040,3.357,-4.639
-0.439,-0.561,-2.361,136.292,-0.916,3.235
-0.294,-0.555,-2.087,86.487,-8.545,14.343
-0.039,-0.513,-1.622,41.016,-18.738,24.902
0.196,-0.499,-1.158,7.507,-25.391,31.311
0.395,-0.518,-0.801,-17.517,-24.536,33.142
0.554,-0.578,-0.472,-36.072,-19.714,34.180
0.694,-0.622,-0.234,-50.354,-14.099,34.180
0.786,-0.649,-0.079,-59.937,-8.728,33.142
0.824,-0.677,-0.005,-65.735,-5.249,29.480
0.811,-0.730,-0.015,-67.627,-3.601,22.888
0.760,-0.775,-0.063,-68.787,-3.479,16.113
0.699,-0.816,-0.115,-71.289,-5.249,10.864
0.642,-0.840,-0.165,-75.500,-8.057,6.042
0.599,-0.850,-0.191,-80.017,-11.108,1.343
0.581,-0.869,-0.195,-84.595,-14.648,-3.418
0.577,-0.873,-0.157,-89.050,-19.104,-6.775
0.590,-0.875,-0.096,-91.064,-25.208,-10.559
0.603,-0.868,-0.015,-89.233,-32.837,-14.038
0.596,-0.870,0.060,-83.130,-40.039,-17.944
0.567,-0.880,0.116,-73.425,-45.227,-21.667
0.528,-0.888,0.153,-61.890,-46.875,-23.193
0.499,-0.886,0.159,-50.537,-43.457,-21.545
0.479,-0.889,0.151,-41.931,-36.438,-17.761
0.471,-0.884,0.135,-36.194,-26.489,-12.390
0.486,-0.877,0.140,-32.532,-15.808,-5.981
0.528,-0.862,0.156,-31.311,-7.751,-0.671
0.552,-0.855,0.159,-32.349,-3.296,2.625
0.555,-0.849,0.148,-33.447,-0.916,3.540
0.569,-0.854,0.143,-34.668,-0.671,3.479
0.571,-0.849,0.151,-35.889,-2.747,3.418
0.559,-0.859,0.169,-36.621,-5.005,3.174
0.543,-0.871,0.163,-36.438,-6.042,3.296
0.543,-0.872,0.173,-36.316,-5.615,5.371
0.561,-0.854,0.204,-37.476,-4.456,9.155
0.557,-0.850,0.225,-38.208,-2.014,11.169
0.552,-0.854,0.224,-37.659,3.296,11.963
0.564,-0.848,0.229,-37.659,9.705,13.733
0.563,-0.833,0.239,-38.696,14.893,14.648
0.564,-0.843,0.229,-38.269,18.982,14.465
0.575,-0.818,0.232,-37.781,20.630,14.648
0.568,-0.815,0.229,-36.621,18.066,14.038
0.538,-0.830,0.202,-34.180,14.221,12.329
0.534,-0.824,0.175,-32.593,11.169,12.451
0.551,-0.802,0.180,-32.654,7.568,13.733
0.560,-0.793,0.186,-33.997,3.540,13.184
0.558,-0.780,0.193,-35.461,0.732,11.414
0.552,-0.788,0.198,-35.828,-1.343,9.460
0.556,-0.790,0.214,-36.072,-2.136,8.118
0.583,-0.774,0.241,-36.865,-3.601,8.118
0.601,-0.770,0.273,-37.476,-7.385,7.568
0.589,-0.771,0.289,-36.316,-11.475,5.188
0.574,-0.783,0.291,-33.691,-15.381,3.601
0.560,-0.789,0.275,-30.823,-18.005,3.967
0.546,-0.780,0.263,-28.748,-18.799,5.249
0.528,-0.779,0.248,-28.015,-17.639,5.737
0.525,-0.778,0.227,-27.893,-14.526,5.920
0.528,-0.769,0.223,-28.931,-11.597,6.592
0.541,-0.761,0.235,-31.616,-10.620,6.836
0.557,-0.754,0.252,-34.485,-11.597,6.653
0.571,-0.744,0.280,-37.109,-14.343,5.920
0.588,-0.741,0.312,-39.429,-18.494,4.150
0.593,-0.739,0.339,-40.161,-23.560,1.953
0.592,-0.745,0.370,-39.185,-29.114,0.122
0.582,-0.752,0.388,-37.231,-34.424,-0.793
0.566,-0.755,0.397,-34.546,-37.292,-0.488
0.550,-0.759,0.392,-32.166,-36.194,0.488
0.527,-0.760,0.380,-30.701,-31.555,2.014
0.518,-0.754,0.365,-30.273,-24.170,4.211
0.517,-0.745,0.363,-31.006,-15.808,6.287
0.524,-0.730,0.377,-32.043,-8.362,8.057
0.545,-0.710,0.366,-31.311,-2.502,8.728
0.569,-0.713,0.412,-33.997,0.488,8.301
0.587,-0.704,0.423,-37.720,-1.282,5.127
0.589,-0.719,0.434,-37.292,-6.836,3.235
0.589,-0.712,0.447,-36.133,-15.686,1.648
0.581,-0.717,0.460,-34.790,-23.926,0.671
0.560,-0.719,0.471,-33.142,-28.687,-0.122
0.542,-0.720,0.465,-30.701,-28.137,-0.183
0.523,-0.726,0.448,-28.320,-22.888,0.854
0.517,-0.721,0.432,-27.222,-13.916,3.113
0.521,-0.709,0.418,-27.405,-3.906,5.310
0.528,-0.708,0.403,-29.053,6.348,6.042
0.539,-0.702,0.397,-31.921,13.916,6.226
0.562,-0.697,0.409,-34.668,14.771,6.165
0.594,-0.655,0.437,-36.804,7.080,5.188
0.604,-0.675,0.477,-37.231,-6.470,2.747
0.610,-0.676,0.504,-37.231,-20.264,-0.610
0.592,-0.679,0.533,-35.461,-31.067,-3.357
0.578,-0.698,0.540,-32.532,-38.635,-5.066
0.551,-0.702,0.537,-29.724,-40.100,-5.005
0.540,-0.702,0.526,-27.283,-35.889,-4.089
0.527,-0.700,0.514,-25.818,-28.320,-2.625
0.517,-0.699,0.493,-24.902,-20.264,-0.671
0.531,-0.686,0.480,-24.353,-14.709,1.038
0.537,-0.675,0.472,-26.123,-15.869,1.465
0.540,-0.675,0.473,-27.344,-23.437,0.061
0.544,-0.669,0.473,-27.588,-34.485,-1.770
0.545,-0.664,0.483,-27.893,-47.607,-3.418
0.551,-0.655,0.504,-27.832,-58.838,-4.822
0.543,-0.653,0.529,-28.259,-65.735,-7.019
0.528,-0.666,0.556,-28.015,-68.237,-8.911
0.517,-0.660,0.581,-27.161,-66.589,-9.033
0.500,-0.666,0.600,-25.635,-61.462,-8.545
0.488,-0.672,0.604,-23.926,-53.406,-7.507
0.479,-0.662,0.601,-22.705,-43.762,-5.859
0.470,-0.666,0.605,-23.315,-33.447,-4.395
0.471,-0.657,0.618,-24.780,-23.437,-3.479
0.470,-0.652,0.630,-26.184,-16.357,-3.174
0.472,-0.653,0.641,-26.733,-12.146,-3.418
0.473,-0.649,0.660,-27.100,-11.108,-3.479
0.470,-0.651,0.698,-26.428,-13.977,-3.845
0.462,-0.664,0.713,-23.621,-17.151,-3.662
0.464,-0.652,0.728,-19.714,-19.531,-2.441
0.467,-0.653,0.725,-16.602,-19.592,-1.892
0.453,-0.661,0.729,-14.404,-17.029,-1.892
0.440,-0.659,0.738,-12.878,-12.390,-1.160
0.436,-0.665,0.743,-11.353,-6.104,0.427
0.722,-0.467,1.407,79.468,47.852,-12.207
0.677,-0.481,1.427,90.149,47.363,-13.916
0.657,-0.440,1.429,103.210,49.072,-14.099
0.637,-0.428,1.371,115.723,46.753,-17.456
0.614,-0.442,1.312,130.554,41.138,-20.569
0.599,-0.430,1.272,143.433,29.724,-20.508
0.601,-0.421,1.217,154.236,15.076,-20.630
0.588,-0.381,1.167,166.260,4.211,-20.630
0.562,-0.338,1.074,181.763,0.854,-22.034
0.516,-0.419,0.903,199.829,7.507,-25.513
0.469,-0.413,0.729,213.440,21.301,-24.841
0.475,-0.417,0.570,225.342,38.574,-22.156
0.439,-0.437,0.338,236.145,52.063,-20.630
0.405,-0.422,0.016,246.094,63.110,-20.386
0.362,-0.397,-0.328,251.709,71.106,-19.165
0.249,-0.392,-0.751,254.028,75.439,-19.653
0.077,-0.425,-1.263,251.465,76.965,-22.034
-0.091,-0.400,-1.788,241.333,74.280,-20.447
-0.281,-0.354,-2.281,223.572,67.078,-14.648
-0.394,-0.387,-2.658,196.899,56.824,-10.010
-0.437,-0.395,-2.864,158.813,45.410,-3.601
-0.362,-0.407,-2.724,111.267,33.081,4.944
-0.164,-0.439,-2.335,58.899,21.912,12.268
0.069,-0.419,-1.720,8.362,9.644,16.052
0.282,-0.471,-1.110,-28.503,-2.014,15.625
0.447,-0.552,-0.589,-51.758,-11.353,14.343
0.565,-0.647,-0.219,-66.772,-16.113,12.085
0.646,-0.700,0.065,-73.792,-15.747,11.597
0.671,-0.787,0.221,-75.012,-11.353,11.108
0.654,-0.843,0.254,-73.059,-6.042,10.254
0.619,-0.891,0.227,-70.007,-1.282,10.132
0.571,-0.922,0.163,-68.787,3.479,10.864
0.518,-0.951,0.088,-69.275,7.263,10.620
0.470,-0.964,0.019,-72.510,9.766,9.705
0.446,-0.964,-0.008,-76.294,10.315,9.583
0.424,-0.957,-0.030,-77.698,6.714,8.057
0.409,-0.958,-0.048,-75.500,0.977,6.287
0.429,-0.941,-0.041,-70.007,-5.249,7.874
0.485,-0.901,0.014,-63.416,-13.123,9.705
0.521,-0.883,0.078,-54.443,-22.156,7.874
0.548,-0.890,0.132,-41.687,-30.334,5.554
0.548,-0.882,0.141,-28.625,-35.034,5.310
0.563,-0.868,0.136,-18.799,-35.034,5.737
0.586,-0.853,0.136,-12.878,-32.593,6.714
0.571,-0.856,0.111,-9.521,-28.198,7.019
0.557,-0.869,0.070,-9.399,-21.729,7.324
0.553,-0.853,0.023,-11.902,-14.404,8.911
0.564,-0.835,0.026,-18.860,-9.277,9.399
0.572,-0.821,0.025,-22.583,-5.188,8.789
0.573,-0.819,0.038,-25.635,-3.784,7.202
0.559,-0.823,0.022,-30.090,-3.601,5.371
0.563,-0.815,0.030,-35.217,-5.005,3.662
0.556,-0.815,0.062,-38.513,-7.385,3.418
0.536,-0.823,0.071,-40.100,-9.460,3.235
0.542,-0.834,0.078,-41.504,-9.155,4.150
0.555,-0.813,0.115,-44.067,-9.155,6.470
0.548,-0.811,0.142,-46.875,-8.606,7.080
0.523,-0.829,0.152,-47.852,-5.981,6.348
0.517,-0.826,0.152,-48.584,-2.502,7.507
0.527,-0.812,0.160,-50.232,0.427,9.583
0.541,-0.801,0.185,-52.979,2.197,10.315
0.544,-0.791,0.198,-56.030,3.357,8.850
0.545,-0.812,0.203,-57.678,3.540,8.240
0.530,-0.796,0.235,-59.143,0.671,9.644
0.552,-0.781,0.247,-58.533,-2.747,10.071
0.578,-0.766,0.282,-56.702,-7.690,8.667
0.569,-0.763,0.307,-55.237,-14.343,6.104
0.535,-0.775,0.309,-51.575,-19.470,2.991
0.535,-0.800,0.322,-45.959,-20.142,2.075
0.548,-0.781,0.330,-42.358,-18.433,4.944
0.565,-0.776,0.360,-41.382,-17.761,6.897
0.560,-0.779,0.378,-39.246,-17.212,6.775
0.577,-0.771,0.394,-36.255,-16.724,6.836
0.596,-0.768,0.417,-33.936,-16.357,6.775
0.595,-0.771,0.424,-31.616,-15.930,6.104
0.591,-0.774,0.425,-29.907,-14.587,5.249
0.584,-0.772,0.417,-28.687,-11.841,4.700
0.564,-0.787,0.392,-27.649,-8.362,3.540
0.545,-0.788,0.368,-27.405,-5.432,3.540
0.540,-0.782,0.350,-27.588,-2.319,4.150
0.530,-0.778,0.338,-27.588,1.099,4.578
0.526,-0.778,0.327,-28.442,5.737,4.761
0.521,-0.775,0.318,-29.480,8.911,5.493
0.534,-0.766,0.319,-30.945,9.460,6.714
0.554,-0.752,0.339,-32.532,7.141,7.568
0.568,-0.752,0.365,-33.508,2.686,7.141
0.570,-0.756,0.386,-33.630,-2.625,6.104
0.566,-0.758,0.412,-33.142,-6.470,5.188
0.560,-0.753,0.408,-31.372,-7.385,5.066
0.537,-0.780,0.437,-29.480,-6.287,5.066
0.504,-0.746,0.355,-24.414,-1.892,6.531
0.532,-0.764,0.371,-25.696,3.357,7.080
0.535,-0.740,0.366,-26.245,7.996,9.766
0.559,-0.737,0.385,-28.564,9.460,11.292
0.574,-0.727,0.378,-29.724,10.803,10.620
0.608,-0.716,0.409,-31.250,11.047,9.766
0.634,-0.700,0.445,-33.691,8.301,7.874
0.628,-0.713,0.482,-34.302,3.540,3.967
0.610,-0.720,0.489,-32.776,-1.892,0.183
0.574,-0.734,0.473,-29.602,-5.859,-1.404
0.543,-0.742,0.435,-25.208,-6.226,-0.122
0.513,-0.740,0.383,-21.545,-3.235,2.808
0.511,-0.729,0.339,-19.165,1.709,5.981
0.528,-0.703,0.325,-20.752,6.470,9.583
0.544,-0.685,0.335,-24.109,9.705,11.292
0.546,-0.690,0.345,-26.611,11.230,10.681
0.557,-0.685,0.345,-28.625,12.390,10.315
0.571,-0.672,0.346,-30.334,11.230,10.071
0.583,-0.657,0.344,-31.494,7.507,8.240
0.589,-0.660,0.346,-31.738,0.610,4.639
0.579,-0.669,0.364,-33.203,-8.179,1.587
0.568,-0.670,0.389,-33.936,-17.578,0.549
0.565,-0.668,0.409,-33.386,-24.353,0.854
0.571,-0.658,0.426,-32.166,-27.466,1.648
0.580,-0.649,0.456,-32.166,-29.236,2.380
0.593,-0.640,0.496,-32.471,-29.663,2.014
0.602,-0.639,0.534,-33.325,-29.480,0.977
0.613,-0.641,0.566,-33.142,-29.358,-0.244
0.622,-0.634,0.602,-33.020,-29.846,-1.465