aX,aY,aZ,gX,gY,gZ
0.167,0.908,0.262,-41.870,-5.005,2.136
0.178,0.878,0.280,-57.556,-1.831,1.038
0.209,0.824,0.186,-69.641,0.854,0.427
0.251,0.711,0.309,-70.984,3.052,0.122
0.291,0.688,0.421,-57.312,-0.305,1.038
0.294,0.748,0.408,-51.086,-6.775,4.089
0.258,0.813,0.441,-53.467,-12.085,7.385
0.179,0.834,0.422,-41.382,-23.376,12.146
0.043,0.831,0.365,-28.137,-28.870,17.334
-0.090,0.837,0.290,-36.011,-20.691,16.968
-0.125,0.913,0.353,-48.584,-10.803,8.911
-0.059,1.107,0.264,-45.654,-9.827,3.296
0.020,1.249,0.036,-45.410,-8.606,5.310
0.066,1.224,0.099,-36.682,-4.150,8.423
0.088,1.063,0.200,-0.244,-5.920,9.094
0.118,0.915,0.241,21.362,-6.836,9.521
0.157,0.827,0.319,22.705,-5.859,5.615
0.168,0.793,0.341,12.817,-9.277,-0.977
0.135,0.830,0.284,2.441,-9.766,-1.160
0.103,0.893,0.277,-1.465,-4.395,-0.244
0.116,0.927,0.301,3.052,-1.221,0.122
0.150,0.895,0.325,7.935,-1.099,-0.244
0.160,0.839,0.324,13.062,-2.380,0.061
0.126,0.878,0.322,10.681,-3.906,2.686
0.093,0.970,0.247,-2.502,-2.686,2.441
0.091,0.953,0.213,-11.047,-1.099,-0.061
0.098,0.912,0.216,-2.014,1.709,0.061
0.117,0.915,0.210,3.845,4.639,-0.305
0.143,0.904,0.238,3.845,6.287,-0.916
0.153,0.910,0.246,1.831,5.310,-0.610
0.141,0.940,0.240,0.916,3.540,0.122
0.128,0.926,0.269,4.822,2.319,0.488
0.128,0.893,0.301,9.766,0.916,0.549
0.124,0.874,0.314,9.766,-0.122,0.427
0.110,0.887,0.297,5.493,0.183,0.488
0.102,0.923,0.275,-2.808,2.075,-0.488
0.108,0.935,0.251,-6.165,4.028,-1.282
0.118,0.912,0.256,-0.488,5.066,0.000
0.131,0.907,0.263,2.136,4.700,1.160
0.133,0.903,0.262,0.305,3.540,0.244
0.120,0.912,0.270,-1.282,2.197,-0.610
0.113,0.919,0.281,-1.648,1.038,-0.610
0.111,0.915,0.280,0.671,0.244,-0.488
0.111,0.903,0.286,1.892,-0.366,-0.183
0.107,0.909,0.286,1.953,-0.061,-0.183
0.113,0.923,0.283,-0.549,0.427,-0.671
0.111,0.918,0.278,-1.526,0.183,0.000
0.107,0.921,0.278,0.610,0.610,0.549
0.112,0.913,0.275,1.404,1.282,0.000
0.117,0.925,0.265,-0.977,1.221,-0.122
0.116,0.925,0.266,-1.648,2.258,-0.122
0.118,0.913,0.266,0.916,2.502,0.061
0.122,0.913,0.273,2.136,1.892,0.183
0.121,0.911,0.276,0.977,0.793,0.305
0.120,0.899,0.285,0.793,0.122,0.366
0.112,0.916,0.279,1.221,-0.366,0.366
0.110,0.930,0.272,-0.610,0.183,0.183
0.115,0.916,0.279,-0.671,0.488,-0.305
0.115,0.915,0.281,1.099,0.549,0.427
0.117,0.923,0.282,1.038,0.977,0.244
0.119,0.924,0.269,1.221,1.831,-0.061
0.123,0.920,0.262,-0.183,1.892,-0.244
0.119,0.922,0.256,-1.343,2.258,0.122
0.120,0.926,0.259,-2.930,3.418,-0.183
0.177,0.878,0.280,-39.856,-7.874,-1.099
0.193,0.916,0.284,-47.241,-3.967,-2.686
0.234,0.860,0.295,-50.110,-0.427,-1.526
0.270,0.746,0.405,-35.706,0.488,2.258
0.260,0.778,0.364,-27.222,-2.197,5.676
0.210,0.812,0.335,-37.109,-3.052,9.155
0.148,0.823,0.378,-43.152,-6.348,14.648
0.038,0.848,0.345,-38.391,-13.489,21.729
-0.114,0.877,0.324,-36.499,-12.024,22.461
-0.177,1.034,0.350,-34.973,-7.385,14.587
-0.091,1.224,0.249,-26.062,-4.883,9.033
0.023,1.205,0.194,-17.700,-6.775,9.033
0.069,1.010,0.185,-6.226,-9.583,11.902
0.066,0.849,0.235,8.728,-8.972,13.306
0.098,0.794,0.321,15.442,-3.967,10.010
0.146,0.822,0.348,8.118,-3.357,4.700
0.146,0.880,0.341,0.610,-4.272,2.869
0.112,0.955,0.356,0.610,-5.432,1.770
0.089,0.976,0.346,7.507,-5.737,0.977
0.091,0.866,0.347,16.235,-2.930,1.892
0.099,0.812,0.308,17.395,-1.770,2.808
0.098,0.836,0.280,5.005,-1.892,3.174
0.089,0.895,0.311,-1.465,-2.441,1.831
0.083,0.942,0.293,-5.371,-2.563,1.282
0.079,0.979,0.229,-8.057,-3.174,1.587
0.073,0.981,0.220,-1.648,-0.183,0.977
0.084,0.947,0.205,6.836,2.686,2.258
0.098,0.904,0.228,9.033,3.174,2.869
0.094,0.875,0.233,9.705,4.333,2.014
0.085,0.869,0.244,6.592,5.493,1.465
0.095,0.886,0.265,3.845,6.348,0.427
0.109,0.903,0.276,1.892,5.920,-0.122
0.108,0.910,0.282,2.625,5.432,0.366
0.100,0.903,0.270,2.319,3.723,0.793
0.096,0.903,0.278,0.366,3.418,-0.183
0.090,0.897,0.285,0.549,4.089,-0.427
0.083,0.911,0.266,-0.732,4.456,-0.549
0.096,0.920,0.281,-3.235,4.333,-2.014
0.104,0.895,0.298,0.977,4.028,-1.953
0.101,0.893,0.305,2.808,2.869,-0.977
0.100,0.900,0.304,1.465,2.136,-1.160
0.099,0.901,0.308,-0.977,1.282,-1.282
0.093,0.901,0.315,-1.831,1.160,-0.366
0.091,0.911,0.309,-2.258,1.343,-0.549
0.094,0.923,0.291,-3.235,2.319,-0.854
0.095,0.927,0.278,-4.700,2.563,-0.671
0.097,0.916,0.280,-2.747,2.625,-0.244
0.095,0.919,0.286,-0.732,3.174,0.061
0.105,0.920,0.291,-1.953,2.075,-0.427
0.109,0.908,0.294,-1.770,0.671,-0.732
0.097,0.910,0.305,-0.183,-0.122,-0.244
0.096,0.918,0.312,0.732,-0.061,-0.305
0.098,0.904,0.322,0.977,0.122,-0.916
0.092,0.908,0.301,1.099,0.122,-0.305
0.090,0.925,0.287,-1.099,1.099,0.000
0.094,0.923,0.290,-1.221,2.014,-0.183
0.097,0.925,0.287,-0.610,1.892,-0.305
0.102,0.926,0.294,-1.343,1.587,-0.427
0.097,0.921,0.300,-0.122,1.099,-0.427
0.093,0.926,0.286,1.404,1.160,-0.305
0.094,0.917,0.282,0.488,1.221,-0.488
0.096,0.902,0.290,0.793,0.793,-1.160
0.095,0.902,0.293,1.526,1.038,-1.343
0.095,0.916,0.289,-1.221,1.770,-1.526
0.118,0.880,0.353,-29.175,2.258,1.038
0.125,0.885,0.341,-30.701,1.709,0.671
0.134,0.886,0.333,-31.494,1.282,2.502
0.136,0.876,0.331,-29.846,0.854,3.845
0.141,0.883,0.333,-29.480,0.732,5.066
0.137,0.897,0.305,-28.625,2.197,5.798
0.135,0.882,0.269,-25.330,4.456,7.507
0.114,0.878,0.314,-18.372,4.944,8.240
0.094,0.889,0.327,-9.338,3.967,8.545
0.106,0.868,0.291,-7.629,-0.732,10.010
0.083,0.862,0.329,-13.611,-4.639,13.245
0.026,0.875,0.345,-13.489,-2.258,11.963
0.027,0.852,0.360,-8.911,-0.488,6.409
0.052,0.848,0.418,-5.188,-2.808,3.967
0.029,0.903,0.418,-7.202,-5.432,2.075
0.009,0.955,0.318,-14.832,-3.052,0.488
0.029,1.001,0.255,-19.592,0.977,0.244
0.094,1.050,0.231,-18.066,4.028,0.977
0.139,1.000,0.270,-12.085,2.075,-0.549
0.125,0.913,0.307,2.441,-0.916,-0.610
0.105,0.894,0.304,6.775,-2.930,0.549
0.102,0.898,0.328,3.418,-3.296,1.160
0.092,0.895,0.317,3.296,-3.967,2.014
0.076,0.912,0.287,2.869,-2.808,2.991
0.079,0.922,0.301,0.488,-0.977,2.380
0.080,0.938,0.284,0.122,1.099,2.075
0.085,0.931,0.275,-3.418,3.052,1.709
0.088,0.914,0.276,-3.235,3.540,1.343
0.086,0.908,0.261,-2.502,3.479,2.258
0.084,0.897,0.253,-2.197,3.967,3.357
0.082,0.908,0.255,0.549,4.211,3.601
0.085,0.920,0.257,1.648,3.540,2.747
0.095,0.909,0.272,-0.610,2.136,1.404
0.097,0.878,0.292,-0.366,1.160,0.366
0.084,0.867,0.300,1.160,0.732,0.916
0.084,0.892,0.305,-0.183,1.221,1.282
0.086,0.913,0.294,-2.930,1.709,0.000
0.078,0.928,0.271,-3.540,2.625,-0.427
0.089,0.916,0.284,-1.831,3.174,-0.977
0.105,0.901,0.299,0.366,2.441,-0.366
0.103,0.893,0.304,-0.183,2.014,0.549
0.091,0.892,0.307,-0.488,0.977,0.244
0.082,0.902,0.305,-1.038,1.221,0.061
0.086,0.915,0.298,-3.113,1.221,-0.488
0.083,0.908,0.311,-1.709,1.343,-0.732
0.083,0.904,0.302,2.258,1.282,-0.427
0.085,0.904,0.291,2.563,0.977,-0.549
0.086,0.930,0.279,-2.441,1.526,-0.854
0.095,0.931,0.266,-5.432,2.502,-2.136
0.093,0.907,0.269,-3.174,2.563,-2.319
0.095,0.919,0.273,-1.404,2.502,-1.221
0.104,0.924,0.282,-0.305,1.709,-0.854
0.103,0.907,0.295,1.099,0.305,-0.854
0.092,0.895,0.309,2.197,-1.099,-0.977
0.090,0.897,0.318,2.075,-1.892,-1.038
0.091,0.911,0.319,0.793,-2.197,-0.610
0.084,0.920,0.314,0.000,-2.502,-0.427
0.075,0.921,0.303,-0.916,-2.380,-0.305
0.070,0.926,0.295,-0.793,-0.977,-0.610
0.084,0.949,0.281,-2.319,0.916,-1.953
0.096,0.941,0.274,-2.747,1.892,-1.709
0.092,0.918,0.270,0.671,2.319,-0.671
0.096,0.915,0.268,2.258,1.831,-0.061
0.096,0.907,0.278,2.502,1.282,0.244
0.118,0.946,0.405,-19.775,-3.662,-0.671
0.133,0.938,0.346,-23.437,-2.197,-1.770
0.147,0.912,0.277,-31.799,-2.075,-0.793
0.137,0.881,0.274,-41.382,0.854,2.136
0.157,0.847,0.313,-48.767,2.991,3.967
0.181,0.828,0.369,-43.457,1.282,5.615
0.162,0.877,0.328,-36.011,-2.014,6.165
0.119,0.916,0.321,-40.894,-2.869,7.874
0.082,0.924,0.348,-32.043,-3.479,9.583
0.047,0.901,0.329,-19.287,-4.700,11.169
0.019,0.844,0.271,-19.104,-5.310,13.245
-0.037,0.812,0.299,-12.085,-2.808,12.634
-0.046,0.892,0.365,-6.226,1.221,8.667
0.014,1.017,0.317,-6.042,0.977,9.277
0.033,1.091,0.245,-18.372,-3.296,10.498
0.018,1.071,0.233,-21.667,-5.249,6.287
0.024,0.972,0.257,-7.019,-4.272,5.737
0.077,0.885,0.283,8.118,-3.052,7.141
0.119,0.837,0.322,17.456,-1.831,7.202
0.121,0.857,0.342,17.212,-2.197,5.188
0.091,0.915,0.329,8.972,-2.380,3.113
0.070,0.931,0.318,2.197,-2.014,2.563
0.063,0.907,0.312,2.441,-0.916,3.418
0.064,0.900,0.297,3.967,1.099,4.822
0.064,0.903,0.284,4.028,2.808,5.737
0.058,0.910,0.255,2.258,4.639,5.066
0.066,0.914,0.257,-3.357,5.066,3.296
0.071,0.924,0.258,-3.845,4.028,1.892
0.072,0.944,0.255,-0.854,4.028,2.197
0.068,0.929,0.244,2.441,4.028,2.930
0.060,0.906,0.244,2.869,3.967,3.784
0.063,0.884,0.260,3.723,4.150,2.563
0.069,0.878,0.285,3.845,4.578,1.892
0.077,0.885,0.282,1.465,3.967,1.038
0.078,0.883,0.292,-0.793,3.479,0.305
0.077,0.906,0.299,0.427,3.723,0.854
0.084,0.918,0.302,1.221,2.808,0.610
0.087,0.906,0.301,1.709,0.793,-0.122
0.073,0.901,0.307,0.244,-0.183,-0.854
0.075,0.903,0.309,-0.061,0.488,-1.404
0.070,0.911,0.302,-1.038,1.099,-1.160
0.072,0.913,0.287,-3.540,1.770,-1.038
0.078,0.907,0.295,-4.517,2.014,-1.099
0.078,0.907,0.296,-3.540,3.113,-0.427
0.080,0.910,0.291,-1.343,2.930,-1.160
0.088,0.901,0.292,0.366,2.808,-1.160
0.094,0.903,0.303,0.854,1.831,-0.916
0.093,0.907,0.310,1.099,0.183,-0.427
0.083,0.913,0.312,0.732,-1.526,-0.488
0.072,0.909,0.311,1.587,-1.770,-0.732
0.068,0.911,0.314,0.549,-1.831,-0.854
0.071,0.925,0.298,-2.441,-1.221,-0.488
0.069,0.917,0.281,-3.479,0.122,-0.854
0.070,0.911,0.280,-3.479,0.610,-1.221
0.073,0.919,0.279,-1.343,0.916,-1.221
0.072,0.929,0.274,-1.892,0.610,-1.221
0.071,0.934,0.278,-2.869,0.305,-1.526
0.070,0.920,0.282,-0.854,0.183,-1.709
0.070,0.906,0.296,1.648,-0.244,-1.282
0.072,0.914,0.302,3.052,-0.305,-0.977
0.074,0.915,0.297,2.502,-0.183,-0.916
0.075,0.914,0.294,0.427,-0.122,-1.404
0.068,0.913,0.286,0.305,0.305,-1.282
0.066,0.912,0.288,0.183,0.793,-0.854
0.111,0.922,0.376,-24.658,-0.854,0.854
0.118,0.910,0.356,-26.917,-1.404,0.488
0.135,0.886,0.320,-32.593,-1.465,-0.977
0.141,0.878,0.247,-46.326,-1.343,-0.977
0.144,0.856,0.290,-61.462,-0.122,0.366
0.153,0.871,0.310,-58.228,-0.488,3.357
0.154,0.863,0.342,-48.889,-0.671,4.456
0.131,0.843,0.371,-38.757,-4.639,6.104
0.080,0.870,0.370,-28.259,-7.568,8.911
0.039,0.909,0.339,-21.851,-7.202,11.780
0.019,0.942,0.286,-19.043,-5.310,13.245
-0.011,0.930,0.281,-10.071,-2.808,14.282
-0.036,0.936,0.249,-5.676,-0.916,14.709
-0.003,0.900,0.278,-1.160,0.793,10.864
0.046,0.890,0.333,-1.465,-4.395,6.470
0.019,0.942,0.318,-2.869,-8.118,6.226
-0.010,1.001,0.286,-8.789,-7.080,4.211
0.035,1.029,0.269,-13.977,-5.737,2.075
0.098,0.999,0.271,-9.521,-5.188,2.014
0.106,0.938,0.284,-3.113,-3.662,4.395
0.067,0.871,0.294,8.362,-2.441,4.272
0.041,0.896,0.303,10.193,-0.732,4.395
0.063,0.939,0.292,3.174,1.831,3.967
0.084,0.898,0.284,0.488,0.793,2.930
0.067,0.872,0.285,5.981,0.916,3.479
0.059,0.903,0.296,5.981,1.160,3.540
0.071,0.929,0.293,2.502,1.099,2.808
0.078,0.929,0.283,-0.977,0.549,1.526
0.069,0.919,0.269,0.244,-0.183,1.526
0.054,0.919,0.250,0.732,1.221,2.563
0.057,0.947,0.237,-1.587,2.808,2.075
0.060,0.941,0.214,-1.648,4.822,1.404
0.060,0.895,0.232,0.671,5.310,1.160
0.078,0.878,0.270,3.906,5.554,0.977
0.092,0.874,0.278,5.798,4.578,0.671
0.089,0.880,0.288,3.662,3.357,0.061
0.085,0.908,0.297,2.197,2.563,-0.427
0.081,0.909,0.297,2.258,1.282,-0.366
0.074,0.892,0.304,3.479,0.122,0.183
0.053,0.894,0.309,4.028,0.061,0.549
0.052,0.919,0.288,-1.282,1.221,-0.122
0.061,0.904,0.269,-7.385,2.563,-1.282
0.053,0.922,0.265,-5.737,3.113,-0.977
0.063,0.955,0.254,-2.747,4.333,0.244
0.076,0.929,0.260,0.183,3.479,-0.366
0.074,0.904,0.282,3.723,1.953,-0.977
0.073,0.889,0.295,6.165,1.160,-1.343
0.081,0.875,0.307,5.005,0.000,-2.136
0.078,0.893,0.315,1.526,-0.610,-2.075
0.071,0.928,0.305,-0.916,-0.977,-0.610
0.058,0.934,0.281,-0.488,-1.099,0.610
0.057,0.931,0.291,-1.038,-0.427,0.183
0.062,0.938,0.287,-2.014,0.305,-0.549
0.063,0.925,0.272,-2.991,1.953,-1.099
0.063,0.918,0.278,-2.808,2.502,-2.258
0.067,0.919,0.284,1.099,2.563,-1.831
0.072,0.927,0.295,1.770,1.709,-2.014
0.071,0.920,0.298,0.916,0.488,-2.869
0.064,0.905,0.301,0.916,0.061,-3.052
0.061,0.911,0.305,1.892,-0.305,-2.625
0.065,0.924,0.290,0.427,-0.610,-1.648
0.064,0.927,0.286,-3.052,-0.916,-1.465
0.066,0.930,0.287,-3.601,-0.305,-1.404
0.067,0.932,0.281,-2.014,0.671,-0.916
0.094,0.946,0.339,-24.597,-1.282,0.488
0.098,0.918,0.306,-31.189,1.221,-0.305
0.114,0.891,0.324,-34.424,2.686,0.977
0.127,0.874,0.327,-33.020,2.563,3.418
0.133,0.860,0.348,-30.945,3.296,4.089
0.126,0.869,0.305,-31.860,1.038,3.784
0.102,0.904,0.283,-34.485,-0.549,5.554
0.079,0.928,0.317,-33.386,-0.793,5.798
0.075,0.937,0.356,-24.292,-1.526,6.104
0.077,0.936,0.321,-13.428,-3.052,8.057
0.065,0.891,0.274,-9.705,-4.272,11.047
0.027,0.881,0.276,-10.315,-3.845,13.245
-0.008,0.926,0.277,-14.404,-1.099,11.414
-0.010,0.943,0.294,-9.766,2.686,6.531
0.035,0.950,0.292,-3.174,3.662,5.554
0.083,0.915,0.314,-0.671,1.160,8.118
0.050,0.884,0.348,5.066,-4.456,7.385
-0.007,0.924,0.312,8.667,-5.371,7.019
0.016,0.992,0.321,-5.920,-3.540,5.859
0.063,1.035,0.252,-13.306,-1.587,3.845
0.087,0.956,0.256,-12.085,-0.854,3.357
0.057,0.876,0.294,2.869,-0.916,4.028
0.049,0.870,0.317,10.681,-0.916,4.578
0.068,0.900,0.309,8.484,-1.038,4.883
0.075,0.898,0.311,3.235,-1.587,3.479
0.057,0.903,0.308,4.089,-2.625,2.563
0.053,0.921,0.308,3.845,-1.587,3.296
0.060,0.922,0.310,3.113,-0.916,3.296
0.060,0.901,0.297,5.066,0.427,2.625
0.061,0.882,0.282,5.371,1.648,2.197
0.067,0.908,0.262,2.563,1.648,2.502
0.064,0.938,0.258,-3.113,2.014,3.418
0.058,0.934,0.246,-2.441,2.197,2.319
0.059,0.922,0.247,-2.686,1.770,2.747
0.057,0.904,0.259,-0.305,2.136,2.747
0.053,0.886,0.265,3.113,3.113,2.258
0.061,0.878,0.270,3.906,3.967,1.892
0.071,0.874,0.283,3.662,3.113,1.221
0.064,0.901,0.296,3.601,2.747,0.916
0.069,0.914,0.298,2.441,3.052,0.244
0.064,0.907,0.294,2.930,1.221,-0.793
0.056,0.927,0.297,1.709,0.854,-0.183
0.055,0.910,0.285,0.000,1.404,0.244
0.049,0.884,0.282,0.366,2.197,0.244
0.053,0.888,0.284,0.122,3.662,0.793
0.064,0.901,0.283,-1.648,3.906,0.671
0.063,0.906,0.290,-2.136,3.845,0.061
0.058,0.920,0.298,-0.977,3.662,-0.427
0.068,0.917,0.305,0.977,3.113,-0.610
0.068,0.911,0.322,2.563,1.709,-0.854
0.051,0.907,0.304,4.089,1.709,-0.854
0.048,0.896,0.297,2.563,2.380,-1.160
0.057,0.904,0.298,-1.099,2.136,-1.282
0.062,0.926,0.306,-3.357,1.465,-0.977
0.056,0.936,0.290,-3.662,1.587,-0.305
0.051,0.937,0.274,-3.845,2.686,-0.427
0.059,0.933,0.274,-2.808,3.723,-0.793
0.066,0.926,0.285,-0.488,3.418,-1.343
0.067,0.916,0.296,2.258,2.563,-1.038
0.061,0.904,0.300,2.625,1.892,-1.160
0.057,0.906,0.308,1.831,1.587,-1.526
0.060,0.919,0.317,1.526,1.099,-1.404
0.056,0.928,0.322,1.892,1.038,-1.404
0.054,0.934,0.301,1.038,0.854,-1.343
0.076,0.961,0.291,-39.917,1.343,1.831
0.095,0.914,0.313,-54.321,2.869,1.526
0.127,0.882,0.267,-63.049,1.282,0.977
0.157,0.875,0.248,-71.289,0.183,2.380
0.148,0.856,0.299,-67.139,-1.160,3.479
0.132,0.847,0.367,-47.729,-2.075,2.869
0.137,0.874,0.349,-34.790,-4.883,4.944
0.107,0.875,0.340,-29.724,-8.667,7.202
0.036,0.891,0.348,-16.479,-9.216,8.850
-0.005,0.862,0.351,-8.667,-8.118,9.338
-0.000,0.829,0.305,-1.465,-8.240,10.193
-0.019,0.834,0.297,-4.883,-10.010,11.108
-0.055,0.906,0.300,-14.954,-8.484,8.118
-0.029,0.968,0.310,-20.386,-5.859,4.150
0.010,1.056,0.299,-21.667,-8.850,3.235
0.014,1.090,0.305,-15.564,-10.864,3.479
0.001,1.048,0.227,-1.038,-7.996,4.639
0.027,1.018,0.170,2.197,-0.793,6.348
0.076,0.941,0.193,-0.427,3.845,6.409
0.066,0.844,0.260,7.080,1.404,3.479
0.049,0.820,0.302,15.564,0.427,0.488
0.060,0.858,0.308,13.550,0.732,-0.366
0.070,0.929,0.288,5.066,1.038,-1.160
0.071,0.982,0.252,-3.662,0.671,-1.099
0.059,0.965,0.259,-3.845,1.282,0.549
0.046,0.911,0.279,3.906,1.892,1.892
0.043,0.886,0.289,7.080,3.479,2.197
0.053,0.892,0.285,0.671,3.174,0.244
0.067,0.883,0.282,-4.211,2.808,-1.465
0.060,0.908,0.263,-3.052,2.625,-0.549
0.059,0.956,0.244,-1.953,4.089,1.709
0.059,0.949,0.227,-1.160,4.028,1.587
0.058,0.918,0.241,1.282,4.333,0.671
0.064,0.886,0.267,6.897,4.761,0.122
0.069,0.872,0.277,7.874,3.906,0.183
0.075,0.890,0.280,3.235,2.930,0.122
0.070,0.910,0.269,0.671,2.686,-0.671
0.058,0.927,0.271,0.122,2.197,-0.183
0.060,0.928,0.273,0.854,2.258,-0.122
0.059,0.919,0.279,2.686,1.953,-0.183
0.046,0.914,0.281,3.601,2.258,0.122
0.051,0.918,0.280,0.793,1.770,-0.061
0.053,0.918,0.283,-2.258,1.404,-0.610
0.049,0.920,0.285,-0.916,1.465,-1.282
0.055,0.913,0.294,0.854,1.587,-1.404
0.060,0.899,0.289,1.831,2.136,-1.587
0.061,0.907,0.286,1.709,2.014,-1.526
0.057,0.914,0.291,0.916,1.404,-0.916
0.056,0.923,0.302,0.244,0.793,-0.854
0.047,0.942,0.287,-0.061,0.671,-0.916
0.044,0.953,0.262,-0.427,0.854,-1.282
0.048,0.936,0.257,-0.916,0.732,-1.343
0.047,0.931,0.263,-1.404,1.160,-0.305
0.046,0.934,0.252,-3.052,2.075,0.061
0.052,0.916,0.260,-3.723,1.892,-1.404
0.057,0.903,0.282,0.732,2.136,-1.770
0.066,0.917,0.297,2.380,1.099,-1.770
0.070,0.921,0.312,1.953,-0.854,-2.258
0.057,0.918,0.322,1.160,-1.953,-2.441
0.048,0.924,0.313,1.343,-2.502,-2.747
0.046,0.919,0.311,2.563,-1.770,-2.502
0.049,0.913,0.302,2.930,-0.366,-2.136
0.054,0.927,0.292,0.610,0.671,-2.075
0.056,0.935,0.271,-2.136,1.648,-2.258
0.078,0.964,0.332,-36.255,3.052,0.061
0.107,0.925,0.253,-52.429,1.221,-0.427
0.107,0.880,0.233,-69.336,1.526,0.854
0.133,0.848,0.249,-79.163,3.723,0.610
0.176,0.792,0.355,-63.904,4.211,0.488
0.175,0.780,0.334,-49.561,-0.793,3.113
0.146,0.826,0.350,-49.805,-5.127,4.333
0.096,0.857,0.388,-39.063,-9.949,3.845
0.036,0.892,0.372,-24.231,-15.442,5.920
-0.043,0.935,0.254,-23.315,-15.747,11.230
-0.076,0.927,0.274,-42.114,-9.827,9.827
-0.024,0.874,0.411,-34.668,-7.202,4.822
-0.021,0.955,0.418,-9.705,-13.306,7.446
-0.078,1.109,0.251,-3.479,-11.169,12.329
-0.095,1.173,0.088,-6.042,-1.953,13.550
-0.031,1.117,0.085,-1.038,2.747,12.085
0.051,0.978,0.231,12.085,0.610,9.949
0.098,0.871,0.326,22.217,-4.456,7.935
0.094,0.843,0.340,16.907,-9.949,4.578
0.056,0.864,0.340,4.639,-11.353,2.075
0.018,0.898,0.304,-3.357,-9.766,1.282
0.023,0.896,0.280,-6.409,-6.531,1.221
0.040,0.882,0.322,-2.625,-4.028,1.282
0.055,0.888,0.300,0.916,-2.747,1.770
0.060,0.908,0.284,1.526,-0.244,1.221
0.058,0.933,0.260,0.305,1.648,1.221
0.045,0.957,0.235,-0.488,1.770,2.197
0.031,0.975,0.203,-0.793,2.380,2.319
0.039,0.930,0.213,-1.465,1.343,-0.610
0.051,0.883,0.251,5.188,0.610,-2.441
0.068,0.887,0.253,6.714,0.671,-1.648
0.067,0.899,0.250,4.578,1.038,-1.099
0.055,0.907,0.248,2.930,1.587,-0.549
0.044,0.913,0.252,1.282,2.136,-0.061
0.041,0.919,0.241,1.831,2.930,-0.366
0.044,0.906,0.251,2.136,3.479,-0.793
0.051,0.891,0.267,3.662,3.296,-1.099
0.056,0.907,0.271,4.456,2.319,-0.916
0.055,0.916,0.277,3.357,0.732,-0.854
0.042,0.921,0.262,1.770,-0.610,-1.160
0.032,0.924,0.259,-1.831,0.122,-1.221
0.034,0.907,0.259,-1.587,0.732,-2.441
0.040,0.904,0.277,0.793,1.099,-2.258
0.047,0.924,0.281,0.549,1.831,-2.258
0.054,0.927,0.274,-0.183,1.648,-2.869
0.048,0.918,0.271,1.160,1.404,-2.869
0.038,0.921,0.275,2.014,1.282,-2.380
0.044,0.928,0.266,-0.610,1.038,-2.625
0.050,0.927,0.277,0.122,1.282,-2.747
0.050,0.923,0.276,2.686,1.831,-1.953
0.048,0.937,0.278,2.136,1.160,-1.526
0.046,0.939,0.284,0.366,0.732,-1.892
0.039,0.934,0.267,-0.305,0.183,-1.770
0.032,0.947,0.256,-2.747,0.732,-1.099
0.040,0.944,0.256,-5.554,1.892,-1.465
0.041,0.918,0.262,-3.723,2.014,-1.831
0.043,0.919,0.271,0.000,1.953,-1.160
0.048,0.924,0.275,0.854,1.282,-0.854
0.048,0.923,0.299,1.099,0.427,-1.221
0.045,0.940,0.282,-0.854,-0.610,-1.587
0.045,0.937,0.274,-5.371,-0.793,-1.892
0.042,0.930,0.286,-2.380,0.122,-1.343
0.048,0.926,0.290,1.099,0.916,-0.061
0.057,0.909,0.289,1.587,1.099,0.305
0.088,0.965,0.336,-26.306,-6.042,0.732
0.085,0.927,0.377,-35.095,-4.456,0.671
0.120,0.921,0.249,-53.833,-4.761,1.221
0.154,0.860,0.225,-74.524,-3.662,3.723
0.142,0.802,0.354,-74.951,-2.502,3.967
0.121,0.827,0.319,-64.636,-3.479,3.662
0.105,0.864,0.298,-60.120,-4.517,6.226
0.065,0.910,0.328,-46.936,-5.371,9.094
0.025,0.973,0.330,-32.715,-7.568,10.742
0.007,0.954,0.299,-20.386,-9.521,12.634
-0.032,0.866,0.325,-8.667,-13.000,13.611
-0.061,0.874,0.365,-1.160,-13.062,11.047
-0.025,0.874,0.373,-9.766,-15.991,8.179
-0.047,0.873,0.356,-7.812,-18.677,9.949
-0.104,1.040,0.240,-9.949,-12.817,12.268
-0.054,1.146,0.138,-29.541,-5.676,9.399
0.062,1.033,0.232,-22.583,-0.916,5.432
0.121,0.935,0.318,7.568,-2.747,5.066
0.088,0.918,0.333,22.888,-4.944,5.676
0.044,0.877,0.325,17.639,-4.211,1.465
0.020,0.847,0.329,11.902,-3.784,-2.441
0.019,0.869,0.328,12.390,-1.221,-1.465
0.034,0.905,0.302,14.038,2.686,0.366
0.057,0.906,0.306,11.108,4.517,0.854
0.057,0.911,0.269,6.958,2.747,0.671
0.049,0.934,0.270,1.892,-0.122,-0.671
0.043,0.967,0.265,0.732,0.244,-0.061
0.051,0.981,0.226,-0.671,0.061,1.160
0.052,0.928,0.214,1.404,0.244,1.709
0.039,0.877,0.224,5.554,1.404,1.709
0.038,0.879,0.232,5.920,1.953,1.282
0.051,0.896,0.254,2.319,2.197,0.793
0.057,0.913,0.263,0.488,2.014,-0.610
0.049,0.931,0.248,1.648,2.686,-1.099
0.047,0.934,0.244,1.465,2.441,-1.221
0.045,0.921,0.261,3.174,1.831,-0.916
0.044,0.901,0.269,4.089,0.916,0.000
0.033,0.883,0.272,2.136,0.549,-0.061
0.027,0.882,0.288,-2.441,1.770,-0.488
0.024,0.905,0.274,-3.662,3.174,-0.977
0.029,0.926,0.256,-4.944,4.517,-1.526
0.039,0.920,0.265,-3.723,5.066,-1.953
0.047,0.910,0.274,-1.709,3.723,-2.075
0.052,0.901,0.285,-0.305,2.563,-1.953
0.051,0.892,0.302,0.732,1.343,-1.892
0.053,0.896,0.310,0.916,-0.610,-1.831
0.045,0.915,0.298,0.549,-1.770,-1.099
0.030,0.932,0.299,-0.366,-1.648,-0.366
0.031,0.934,0.302,-0.977,-0.732,-0.427
0.032,0.938,0.271,-0.427,0.977,-0.732
0.041,0.934,0.254,-4.944,2.625,-0.916
0.043,0.926,0.256,-5.249,3.540,-0.732
0.046,0.925,0.271,-2.441,3.479,-0.732
0.054,0.910,0.284,-0.793,2.747,-1.648
0.050,0.907,0.289,-1.038,1.648,-2.441
0.042,0.924,0.306,-0.671,0.793,-2.380
0.038,0.935,0.303,1.526,0.610,-2.319
0.038,0.929,0.292,2.136,0.854,-2.441
0.039,0.923,0.282,1.038,0.854,-2.075
0.040,0.939,0.291,-0.549,1.404,-1.526
0.044,0.938,0.275,-2.869,1.831,-1.404
0.049,0.931,0.269,-1.648,1.892,-1.160
0.051,0.933,0.277,0.122,2.197,-0.549
0.053,0.933,0.288,1.038,1.587,-0.244
0.081,0.937,0.305,-29.236,0.183,0.305
0.094,0.909,0.194,-45.898,1.770,0.366
0.107,0.840,0.234,-64.026,2.563,1.343
0.120,0.846,0.321,-67.566,3.113,2.808
0.149,0.876,0.339,-55.786,1.404,4.456
0.153,0.857,0.355,-46.265,-4.211,5.188
0.111,0.879,0.318,-36.133,-7.629,6.897
0.074,0.913,0.317,-33.203,-10.315,9.399
0.031,0.894,0.366,-16.357,-11.902,13.123
-0.044,0.866,0.376,1.099,-12.573,18.494
-0.120,0.871,0.297,-1.160,-10.132,18.982
-0.128,0.874,0.266,-13.855,-3.174,13.977
-0.061,0.920,0.345,-11.719,-0.427,8.972
-0.003,1.032,0.291,-11.475,-4.822,7.568
-0.002,1.035,0.260,-14.099,-6.958,7.690
-0.032,0.986,0.259,-2.319,-6.653,6.775
-0.003,0.976,0.249,3.174,-5.859,7.019
0.073,0.978,0.247,-5.798,-5.188,5.554
0.088,0.896,0.311,-0.671,-3.174,3.662
0.045,0.870,0.328,15.137,-3.296,2.991
0.037,0.902,0.330,11.902,-2.014,2.075
0.056,0.901,0.325,2.319,-1.160,0.671
0.061,0.882,0.321,-0.671,0.122,1.160
0.051,0.902,0.330,3.540,1.038,3.174
0.034,0.929,0.286,3.784,1.343,4.639
0.029,0.936,0.261,-3.052,0.366,2.869
0.029,0.946,0.260,-4.700,-0.305,0.793
0.027,0.950,0.237,-3.601,0.427,0.793
0.040,0.939,0.224,-1.709,1.892,0.549
0.048,0.924,0.210,2.563,3.174,0.854
0.051,0.905,0.224,7.568,3.540,0.977
0.059,0.884,0.260,10.315,2.747,0.305
0.067,0.877,0.275,9.094,2.625,-0.732
0.068,0.896,0.284,7.019,1.892,-0.732
0.056,0.924,0.274,5.981,0.610,-0.366
0.047,0.920,0.272,3.967,-0.061,-0.061
0.034,0.904,0.267,2.197,0.244,0.000
0.037,0.909,0.260,-1.099,1.343,-0.122
0.041,0.910,0.270,-5.371,2.686,-0.488
0.034,0.900,0.282,-2.319,3.418,-1.221
0.034,0.896,0.270,0.916,3.174,-1.343
0.044,0.915,0.275,1.282,2.197,-1.404
0.043,0.920,0.285,1.160,1.526,-1.831
0.033,0.908,0.292,3.052,1.221,-2.014
0.026,0.914,0.302,4.822,0.854,-1.831
0.035,0.933,0.278,0.610,1.160,-1.892
0.037,0.909,0.278,-3.845,1.465,-2.380
0.033,0.897,0.286,-1.282,2.014,-1.770
0.035,0.922,0.276,-0.793,2.258,-1.404
0.039,0.925,0.271,-1.892,2.502,-1.404
0.034,0.923,0.279,-2.502,1.709,-1.465
0.036,0.932,0.280,-2.136,0.916,-1.404
0.032,0.923,0.287,-0.488,0.183,-1.526
0.027,0.918,0.294,1.892,-0.061,-0.977
0.029,0.927,0.288,0.977,0.427,-0.732
0.033,0.931,0.280,-1.648,0.916,-0.366
0.031,0.933,0.275,-1.099,1.709,-0.610
0.033,0.928,0.274,0.183,2.197,-0.671
0.042,0.929,0.274,-0.122,1.831,-1.221
0.047,0.927,0.280,-0.732,1.587,-1.709
0.044,0.928,0.285,-0.732,1.587,-1.465
0.045,0.923,0.291,0.488,1.343,-1.709
0.044,0.924,0.296,1.770,1.099,-1.526
0.042,0.927,0.303,2.075,1.160,-0.916
0.071,0.947,0.390,-26.123,-0.793,0.854
0.061,0.941,0.282,-38.635,-0.183,0.732
0.070,0.900,0.182,-60.425,1.770,1.831
0.083,0.880,0.284,-68.054,6.348,2.808
0.096,0.881,0.350,-58.105,8.240,3.723
0.120,0.885,0.323,-52.551,5.249,5.127
0.117,0.883,0.335,-43.823,2.686,5.371
0.083,0.886,0.309,-29.541,-0.732,6.226
0.060,0.874,0.337,-21.301,-5.066,9.583
0.026,0.882,0.339,-11.108,-8.972,14.099
-0.065,0.873,0.305,0.916,-10.193,15.686
-0.120,0.847,0.334,2.686,-7.385,12.817
-0.124,0.940,0.337,-5.371,-7.385,7.629
-0.051,1.138,0.220,-29.907,-6.592,2.930
0.033,1.127,0.188,-41.870,-5.188,-0.488
0.059,0.944,0.270,-13.611,-4.456,2.563
0.053,0.854,0.313,17.517,-2.991,10.315
0.060,0.882,0.290,18.555,-0.977,12.207
0.076,0.913,0.315,2.319,-1.770,7.263
0.070,0.927,0.357,-2.014,-5.859,0.977
0.046,0.929,0.353,10.498,-7.202,0.610
0.010,0.912,0.313,20.264,-4.272,4.944
-0.012,0.945,0.286,13.672,-2.075,6.897
0.004,0.960,0.234,-1.709,-0.977,4.272
0.002,0.877,0.248,-8.484,0.183,1.282
0.001,0.875,0.259,-3.235,3.296,0.977
0.034,0.923,0.226,-4.883,5.310,1.343
0.059,0.933,0.203,-4.578,6.226,1.038
0.053,0.919,0.216,1.221,5.249,0.488
0.041,0.901,0.233,6.897,3.723,-0.122
0.047,0.893,0.260,7.751,2.441,-0.793
0.049,0.904,0.274,5.737,1.831,-0.427
0.040,0.925,0.271,5.249,1.160,0.122
0.038,0.913,0.274,3.906,0.366,0.366
0.033,0.889,0.278,2.686,-0.122,-0.427
0.031,0.886,0.277,0.671,1.099,-1.038
0.029,0.911,0.256,-3.418,2.625,-0.732
0.035,0.938,0.259,-7.690,4.150,-1.221
0.038,0.932,0.271,-5.066,4.578,-1.160
0.035,0.909,0.264,-0.366,3.296,-0.977
0.032,0.911,0.274,2.136,2.625,-0.977
0.034,0.903,0.282,2.747,1.770,-1.587
0.035,0.902,0.294,3.418,0.366,-1.770
0.027,0.910,0.294,1.404,-0.305,-1.587
0.026,0.910,0.290,-0.977,-0.061,-1.953
0.022,0.919,0.287,-0.916,-0.122,-2.441
0.032,0.944,0.281,-2.747,0.732,-3.418
0.039,0.937,0.270,-3.601,1.404,-3.784
0.035,0.933,0.249,-4.211,2.991,-3.174
0.041,0.930,0.252,-5.737,4.028,-2.747
0.042,0.928,0.255,-3.601,3.601,-2.014
0.040,0.937,0.261,-1.587,2.563,-1.404
0.036,0.929,0.281,0.305,1.526,-1.465
0.034,0.917,0.296,1.099,0.549,-1.526
0.035,0.912,0.310,1.343,-0.427,-1.160
0.029,0.917,0.301,1.587,-1.038,-0.671
0.015,0.922,0.284,0.732,-1.160,-0.732
0.017,0.934,0.289,-0.916,0.061,-1.709
0.025,0.943,0.265,-1.587,1.465,-2.380
0.040,0.932,0.264,-3.479,2.197,-2.075
0.038,0.929,0.263,-2.075,2.319,-1.587
0.040,0.942,0.259,-1.770,1.831,-1.099
0.039,0.930,0.271,-1.648,1.038,-1.099
0.035,0.925,0.280,0.610,0.366,-0.916
0.057,0.942,0.274,-52.490,-0.793,4.150
0.069,0.928,0.251,-66.162,-1.953,2.808
0.070,0.901,0.254,-74.402,-1.587,0.305
0.072,0.920,0.185,-78.613,1.526,-2.502
0.119,0.917,0.224,-74.036,5.676,-3.906
0.177,0.822,0.418,-34.180,0.610,-3.418
0.194,0.794,0.445,-1.526,-8.728,2.258
0.153,0.803,0.381,-12.756,-12.146,6.775
0.052,0.839,0.380,-25.269,-13.977,6.653
-0.026,0.889,0.349,-19.348,-13.855,9.033
-0.037,0.886,0.366,-14.099,-12.451,13.489
-0.076,0.862,0.316,-11.658,-13.672,14.221
-0.120,0.846,0.363,-17.090,-10.498,7.996
-0.125,0.916,0.377,-18.860,-7.874,2.319
-0.088,1.080,0.244,-21.362,-5.371,1.770
-0.036,1.194,0.115,-20.020,-1.465,3.784
-0.005,1.186,0.112,-7.141,0.549,5.676
0.021,1.090,0.124,10.498,1.709,6.592
0.060,0.953,0.193,23.193,3.418,7.446
0.087,0.841,0.299,28.809,1.038,6.714
0.071,0.833,0.313,25.696,-2.502,5.188
0.037,0.849,0.310,11.414,-3.296,3.418
0.013,0.868,0.302,4.395,-2.319,1.648
0.019,0.883,0.288,2.441,-1.160,2.441
0.032,0.935,0.270,-0.244,0.061,3.845
0.048,0.946,0.252,-2.563,0.977,3.357
0.044,0.907,0.255,-1.404,0.488,2.441
0.025,0.927,0.250,-0.854,1.648,2.136
0.030,0.953,0.228,-8.118,3.296,1.465
0.035,0.944,0.213,-6.714,3.540,1.099
0.027,0.924,0.226,3.418,3.906,1.709
0.032,0.918,0.247,9.094,3.784,1.892
0.051,0.903,0.262,8.728,3.113,-0.061
0.054,0.879,0.284,6.775,2.014,-0.916
0.050,0.883,0.298,6.470,1.160,-0.732
0.045,0.903,0.290,3.235,0.061,-0.305
0.033,0.913,0.276,-1.343,0.061,0.000
0.027,0.928,0.274,-2.563,0.916,-0.427
0.032,0.925,0.271,-2.563,0.916,0.366
0.023,0.936,0.250,-1.892,1.587,0.671
0.024,0.948,0.254,-3.601,2.319,-0.366
0.021,0.934,0.255,-1.526,2.075,-1.160
0.026,0.901,0.272,1.770,1.343,-2.258
0.034,0.882,0.300,4.700,0.366,-3.235
0.038,0.887,0.317,4.944,-0.793,-3.601
0.036,0.911,0.321,3.784,-1.709,-3.967
0.026,0.943,0.290,1.343,-2.014,-3.052
0.018,0.937,0.272,-1.465,-1.282,-2.563
0.022,0.929,0.276,-1.465,-0.793,-2.625
0.031,0.941,0.252,-0.549,0.488,-2.380
0.034,0.929,0.265,-0.671,1.160,-2.380
0.032,0.917,0.254,2.197,0.793,-2.075
0.028,0.919,0.250,3.357,-0.122,-1.831
0.032,0.926,0.265,3.113,-0.305,-2.197
0.028,0.934,0.277,3.845,-0.671,-2.319
0.022,0.943,0.270,3.479,-0.305,-1.892
0.026,0.922,0.277,1.953,-0.305,-1.709
0.024,0.908,0.278,2.197,-0.305,-1.587
0.027,0.917,0.276,-0.305,-0.061,-1.343
0.032,0.926,0.273,-1.892,-0.122,-1.648
0.032,0.930,0.274,-2.380,0.671,-1.221
0.034,0.946,0.265,-1.343,0.549,-1.038
0.036,0.936,0.265,-0.549,0.549,-0.854
0.029,0.931,0.265,-0.061,0.916,-0.732
0.016,1.037,0.295,-26.550,1.526,6.165
0.009,1.027,0.194,-51.758,7.507,4.211
0.023,0.966,0.125,-79.529,13.977,2.136
0.066,0.911,0.159,-92.957,19.043,-1.221
0.130,0.824,0.337,-72.571,16.357,-4.700
0.196,0.802,0.420,-37.964,5.249,-2.563
0.238,0.789,0.374,-20.203,-3.845,3.235
0.168,0.778,0.383,-18.250,-8.728,7.874
0.058,0.809,0.420,-20.325,-11.963,9.827
0.006,0.825,0.429,-17.090,-14.465,12.756
-0.052,0.866,0.367,-10.376,-14.526,19.714
-0.133,0.927,0.244,-14.465,-11.353,21.973
-0.140,0.879,0.286,-21.729,-4.028,13.794
-0.122,0.885,0.339,-11.780,-4.517,5.676
-0.128,1.062,0.272,-12.268,-4.517,2.625
-0.053,1.256,0.111,-22.217,1.648,2.869
0.054,1.214,0.110,-15.320,3.662,6.348
0.085,1.048,0.177,16.235,-0.671,10.559
0.055,0.856,0.275,42.847,-3.540,11.292
0.042,0.762,0.331,40.649,-5.493,8.606
0.049,0.800,0.349,18.066,-5.920,6.165
0.031,0.881,0.318,-0.732,-5.005,5.005
0.002,0.934,0.303,-5.859,-2.136,6.836
-0.003,0.955,0.318,-0.366,1.099,7.996
0.003,0.955,0.269,3.418,1.587,6.531
0.022,0.944,0.222,-4.150,1.709,3.601
0.032,0.910,0.232,-7.629,1.160,0.977
0.018,0.903,0.240,1.831,2.747,3.662
0.018,0.934,0.241,6.226,3.662,5.676
0.025,0.922,0.241,4.700,1.709,4.517
0.015,0.895,0.267,5.127,-0.366,1.831
0.010,0.880,0.294,7.690,-0.854,-0.549
0.019,0.876,0.307,9.155,0.122,-0.549
0.022,0.897,0.289,6.592,1.038,0.122
0.014,0.927,0.256,-0.549,0.793,0.427
0.021,0.928,0.265,-6.348,0.488,-0.610
0.025,0.906,0.276,-2.441,0.549,-1.343
0.021,0.912,0.257,0.427,1.526,-0.183
0.024,0.921,0.259,-2.563,1.831,0.244
0.020,0.914,0.269,-0.916,1.465,-0.122
0.009,0.909,0.276,2.930,0.549,-0.305
0.012,0.917,0.277,4.456,0.000,-1.221
0.014,0.907,0.284,2.686,-0.671,-2.197
0.004,0.909,0.282,2.075,-0.916,-3.113
0.007,0.915,0.274,0.244,0.183,-3.235
0.016,0.910,0.276,0.122,0.793,-3.418
0.026,0.918,0.275,-0.671,0.977,-3.174
0.030,0.923,0.279,-1.892,0.549,-2.991
0.026,0.922,0.278,-1.709,0.305,-2.563
0.019,0.924,0.269,-2.014,0.061,-1.892
0.014,0.936,0.273,-2.075,-0.061,-1.526
0.007,0.939,0.277,-0.305,0.427,-1.282
0.005,0.920,0.285,2.380,0.732,-1.404
0.002,0.912,0.282,4.456,0.427,-1.831
0.002,0.927,0.287,3.845,1.160,-1.770
0.014,0.938,0.282,1.282,1.343,-2.502
0.014,0.920,0.283,0.366,1.465,-2.380
0.014,0.919,0.273,-0.854,1.099,-1.831
0.017,0.922,0.276,-2.258,0.977,-1.465
0.017,0.932,0.279,-1.709,1.099,-1.282
0.016,0.937,0.274,-1.404,0.732,-0.793
0.013,0.931,0.279,-0.061,0.488,-0.793
0.009,0.931,0.280,1.526,0.427,-0.916
0.010,0.925,0.288,2.258,0.732,-0.671
0.040,0.947,0.258,-33.691,4.333,4.456
0.043,0.889,0.273,-52.490,7.935,2.258
0.065,0.888,0.237,-70.496,9.216,0.000
0.086,0.893,0.225,-86.121,10.193,-1.221
0.110,0.910,0.280,-86.487,10.315,-2.136
0.148,0.908,0.302,-66.040,5.859,-1.404
0.167,0.841,0.392,-37.109,-1.099,2.563
0.126,0.857,0.406,-15.198,-7.996,7.690
0.066,0.863,0.374,-14.771,-11.780,11.414
0.028,0.818,0.417,-12.939,-15.808,12.756
-0.041,0.793,0.432,-1.587,-18.127,16.602
-0.140,0.806,0.336,-6.287,-14.648,18.921
-0.131,0.863,0.292,-17.334,-7.202,12.207
-0.055,0.953,0.282,-19.470,-7.324,4.089
-0.046,1.106,0.272,-22.034,-11.475,0.854
-0.071,1.206,0.179,-18.066,-10.925,0.549
-0.018,1.151,0.152,-10.315,-7.263,1.465
0.060,1.023,0.156,7.446,-3.235,4.150
0.063,0.840,0.263,20.325,-3.052,4.639
0.026,0.758,0.288,26.917,-1.648,2.747
0.038,0.825,0.283,10.742,0.977,0.732
0.057,0.901,0.268,-6.531,2.747,-1.465
0.050,0.955,0.266,-10.010,0.793,-1.221
0.032,0.984,0.253,-3.540,-0.916,1.221
0.023,0.970,0.261,-0.732,-2.502,2.197
0.019,0.931,0.267,0.427,-3.479,1.953
0.003,0.894,0.271,1.160,-3.296,2.075
-0.010,0.910,0.234,1.709,-1.038,2.136
0.004,0.941,0.233,-1.953,2.014,0.854
0.028,0.939,0.222,-2.686,3.662,0.427
0.029,0.926,0.221,-0.122,3.906,0.977
0.029,0.934,0.244,3.479,3.967,1.160
0.033,0.946,0.238,3.174,3.601,0.427
0.039,0.912,0.253,2.991,2.747,-0.916
0.036,0.883,0.273,6.836,1.587,-0.549
0.035,0.892,0.268,6.836,1.038,0.183
0.032,0.896,0.266,1.831,0.977,-0.244
0.026,0.901,0.274,-0.122,0.916,-1.160
0.025,0.914,0.277,-0.488,1.282,-1.221
0.027,0.941,0.260,-3.296,2.075,-1.282
0.032,0.953,0.243,-7.874,1.953,-1.038
0.025,0.935,0.246,-5.920,1.709,-0.916
0.031,0.923,0.259,-0.061,1.770,-0.977
0.035,0.915,0.255,2.258,0.610,-0.854
0.029,0.910,0.275,3.418,0.122,-1.404
0.021,0.913,0.275,5.737,0.183,-1.526
0.016,0.921,0.270,5.737,0.305,-1.343
0.015,0.939,0.261,1.221,0.916,-1.099
0.010,0.945,0.244,-1.221,1.465,-1.221
0.016,0.924,0.248,0.244,2.747,-1.343
0.028,0.915,0.255,1.709,2.869,-0.916
0.030,0.914,0.256,-0.732,2.441,-1.160
0.028,0.921,0.263,-2.747,1.404,-1.831
0.024,0.928,0.281,-2.258,0.488,-1.953
0.025,0.945,0.281,-0.671,0.000,-1.648
0.020,0.954,0.278,-1.160,-0.061,-0.854
0.009,0.940,0.266,0.183,0.610,-0.122
0.009,0.918,0.274,2.563,1.038,-0.061
0.014,0.912,0.264,3.052,0.916,-0.244
0.020,0.930,0.253,0.305,0.732,-0.916
0.022,0.932,0.260,-0.977,1.587,-0.671
0.026,0.940,0.260,0.793,1.465,-0.427
0.033,0.941,0.271,1.404,0.977,-0.427
0.031,0.935,0.269,0.732,0.183,-0.488
0.015,0.952,0.280,-31.799,9.094,5.127
0.038,0.926,0.263,-44.739,11.414,4.578
0.077,0.870,0.279,-54.504,11.597,2.686
0.095,0.826,0.352,-55.847,10.864,-0.427
0.105,0.857,0.375,-54.443,7.507,-2.563
0.120,0.912,0.325,-55.847,4.150,-1.831
0.110,0.923,0.305,-51.636,2.686,-0.427
0.100,0.919,0.322,-40.894,1.892,2.563
0.080,0.933,0.314,-23.254,0.122,7.080
0.036,0.928,0.304,-16.968,-3.174,9.644
-0.002,0.920,0.292,-18.738,-5.188,10.864
-0.009,0.885,0.308,-17.517,-5.920,13.184
-0.031,0.839,0.372,-0.366,-6.348,14.832
-0.101,0.863,0.268,9.277,-4.272,15.930
-0.116,0.897,0.235,-3.052,3.601,11.353
-0.043,0.939,0.241,-10.986,4.333,5.615
0.009,0.954,0.328,-10.925,-2.014,4.211
-0.010,1.003,0.332,-0.122,-8.789,5.371
-0.044,1.011,0.271,2.808,-8.423,6.836
-0.000,1.022,0.211,2.319,-2.808,7.812
0.060,1.012,0.241,2.197,-1.770,8.606
0.051,0.922,0.300,9.888,-3.235,7.935
0.001,0.848,0.318,13.977,-2.319,4.761
-0.005,0.825,0.280,6.531,-0.061,1.526
0.024,0.837,0.283,-4.700,0.793,0.305
0.037,0.891,0.267,-7.324,1.282,1.038
0.041,0.941,0.261,-7.568,1.038,1.648
0.047,0.955,0.292,-5.005,-0.549,1.282
0.040,0.936,0.306,0.488,-3.296,0.610
0.010,0.949,0.276,3.662,-4.272,1.221
0.012,0.965,0.244,-6.714,-3.357,1.343
0.003,0.933,0.238,-7.568,-1.099,0.977
-0.006,0.937,0.219,-1.221,1.831,2.319
0.014,0.937,0.217,-1.587,3.479,3.113
0.020,0.883,0.226,2.808,4.211,1.831
0.018,0.866,0.245,4.944,3.540,0.183
0.025,0.901,0.277,4.456,2.808,-0.732
0.026,0.939,0.276,3.784,2.869,-1.282
0.022,0.945,0.271,3.662,2.075,-1.099
0.007,0.920,0.261,7.019,0.916,-0.549
0.001,0.913,0.257,7.141,0.122,-0.488
0.005,0.898,0.261,1.770,1.038,-1.099
0.009,0.889,0.261,-2.747,2.502,-2.014
0.013,0.894,0.266,-2.380,3.113,-2.319
0.018,0.927,0.269,0.000,2.869,-1.404
0.024,0.950,0.278,-0.854,2.014,-1.221
0.021,0.935,0.280,-0.061,0.427,-1.709
0.011,0.898,0.293,2.747,-0.732,-1.770
0.006,0.901,0.301,4.089,-0.854,-1.160
0.002,0.914,0.285,3.723,-0.549,-0.854
0.002,0.924,0.281,2.075,0.305,-1.160
0.005,0.930,0.272,-0.427,1.099,-1.221
0.010,0.941,0.262,-2.563,1.770,-1.465
0.014,0.934,0.261,-1.282,2.747,-1.404
0.010,0.948,0.245,0.305,2.991,-0.854
0.014,0.957,0.246,-3.296,2.625,-0.732
0.016,0.935,0.254,-2.441,2.441,-1.587
0.010,0.908,0.268,1.770,1.587,-1.404
0.011,0.904,0.285,3.723,0.916,-1.221
0.012,0.915,0.293,1.892,0.427,-1.587
0.012,0.919,0.296,0.366,0.183,-1.831
0.011,0.926,0.298,1.648,0.061,-1.465
0.007,0.935,0.291,1.526,-0.183,-0.610
0.004,0.945,0.281,-1.526,0.854,-0.427
0.057,0.956,0.268,-34.302,2.441,-1.282
0.057,0.931,0.320,-42.175,4.211,-0.305
0.058,0.917,0.348,-33.447,3.296,0.732
0.066,0.904,0.312,-28.625,1.282,1.953
0.073,0.898,0.274,-32.349,0.488,2.258
0.057,0.896,0.269,-34.790,-0.916,1.160
0.045,0.939,0.230,-39.246,0.305,0.977
0.063,0.937,0.288,-40.527,0.793,2.136
0.063,0.900,0.367,-20.691,-2.075,4.395
0.045,0.865,0.349,-3.967,-5.981,8.179
0.016,0.817,0.377,5.554,-6.470,10.437
-0.076,0.837,0.330,10.071,-5.981,11.108
-0.100,0.911,0.286,-3.174,-1.892,7.629
-0.033,0.963,0.334,-10.071,-0.244,3.113
-0.017,1.032,0.301,-4.639,-1.160,2.197
-0.006,1.050,0.232,-12.451,-0.854,-0.793
0.023,0.992,0.254,-15.198,-1.282,-3.723
0.051,0.913,0.301,-4.150,-0.732,-3.540
0.063,0.867,0.266,5.371,-3.235,-1.343
0.055,0.843,0.274,7.996,-2.625,0.427
0.051,0.883,0.271,4.211,-1.648,0.000
0.069,0.924,0.294,-0.732,-2.747,-1.404
0.065,0.935,0.295,1.221,-3.418,-2.441
0.044,0.955,0.268,-1.038,-4.639,-2.563
0.034,0.950,0.238,-5.188,-3.296,-0.793
0.028,0.923,0.242,-2.441,-0.244,0.977
0.025,0.924,0.240,0.549,0.977,2.808
0.037,0.941,0.245,-1.892,1.099,2.808
0.048,0.926,0.259,-2.136,0.732,1.038
0.040,0.907,0.273,1.770,0.305,0.610
0.038,0.913,0.286,4.395,0.427,0.793
0.038,0.921,0.286,4.883,-0.122,1.282
0.026,0.911,0.284,5.920,0.244,1.526
0.022,0.914,0.286,5.188,0.488,0.244
0.032,0.926,0.253,0.671,0.793,-0.488
0.032,0.919,0.237,-5.676,1.526,-0.732
0.031,0.917,0.223,-6.653,2.930,-0.061
0.035,0.920,0.230,-3.662,4.211,0.732
0.037,0.922,0.242,0.366,4.150,0.854
0.039,0.915,0.255,1.770,2.808,0.000
0.041,0.910,0.286,1.831,1.038,-0.366
0.032,0.906,0.298,3.845,-0.122,-0.549
0.029,0.897,0.304,4.822,-0.916,-0.977
0.031,0.911,0.298,2.808,-1.526,-0.671
0.031,0.927,0.292,-0.977,-1.343,-0.122
0.025,0.925,0.272,-1.221,0.488,0.488
0.031,0.928,0.261,-3.357,1.770,0.488
0.040,0.933,0.260,-3.235,2.686,0.427
0.044,0.931,0.270,-2.258,3.174,0.305
0.037,0.922,0.274,0.549,2.380,0.122
0.031,0.918,0.281,2.502,1.587,-0.122
0.028,0.908,0.289,3.845,0.488,-0.854
0.025,0.906,0.295,2.930,-0.549,-1.099
0.028,0.909,0.296,1.343,-0.366,-0.916
0.032,0.916,0.291,-0.122,-0.610,-0.793
0.033,0.939,0.271,-0.610,-0.488,-0.549
0.035,0.949,0.258,-2.930,-0.061,-0.244
0.038,0.933,0.261,-2.747,-0.061,-0.854
0.042,0.914,0.272,-0.366,0.977,-0.671
0.042,0.914,0.272,0.427,1.099,-0.061
0.039,0.925,0.275,-0.977,0.671,-0.793
0.029,0.926,0.277,-1.587,0.610,-1.160
0.027,0.926,0.282,-0.793,0.977,-1.343
0.031,0.930,0.285,-0.732,0.671,-1.221
0.063,0.894,0.360,-27.283,6.653,-0.488
0.111,0.871,0.282,-39.734,2.502,-2.441
0.125,0.838,0.320,-49.500,-0.549,-1.831
0.112,0.844,0.328,-52.551,-0.610,0.977
0.108,0.859,0.328,-56.274,-1.831,2.869
0.077,0.873,0.329,-47.058,-2.747,2.930
0.062,0.894,0.332,-36.804,-3.540,4.639
0.050,0.895,0.346,-23.682,-6.165,9.766
-0.024,0.891,0.355,-6.714,-10.010,15.015
-0.150,0.871,0.277,-1.526,-7.080,16.296
-0.177,0.865,0.366,-7.812,-0.854,10.986
-0.117,1.030,0.310,-9.705,-1.038,7.996
-0.054,1.219,0.131,-25.330,1.221,6.348
0.017,1.188,0.114,-32.104,5.493,2.014
0.042,0.987,0.213,1.648,2.441,4.333
0.032,0.831,0.303,30.090,-1.404,8.301
0.033,0.766,0.321,31.067,-2.563,6.592
0.046,0.779,0.292,8.728,-4.028,2.563
0.041,0.857,0.313,-11.597,-3.479,1.404
0.021,0.952,0.291,-12.756,-2.686,1.587
0.009,0.990,0.267,-10.620,-1.526,2.136
0.019,0.957,0.261,-6.958,0.732,1.587
0.028,0.926,0.272,-1.953,0.793,0.854
0.030,0.915,0.254,1.404,1.892,1.404
0.022,0.908,0.240,-0.488,2.380,1.587
0.015,0.931,0.249,-2.563,2.441,1.221
0.017,0.942,0.257,-2.075,3.113,0.916
0.029,0.923,0.263,2.197,3.357,-0.122
0.031,0.896,0.275,4.028,2.380,-1.038
0.027,0.894,0.267,2.319,2.441,-1.343
0.031,0.912,0.238,-0.854,1.160,-1.404
0.036,0.915,0.237,-2.319,2.502,-0.610
0.037,0.909,0.253,0.122,2.747,-0.488
0.036,0.929,0.254,1.770,2.869,0.061
0.040,0.918,0.253,0.183,2.502,-0.671
0.035,0.898,0.273,1.892,1.038,-1.343
0.027,0.915,0.284,4.028,0.610,-0.854
0.033,0.927,0.288,1.282,-0.122,-1.526
0.025,0.910,0.285,0.488,-0.854,-2.258
0.012,0.920,0.277,-0.732,-1.160,-2.380
0.016,0.933,0.273,-2.808,0.061,-2.441
0.024,0.931,0.277,-3.601,0.488,-2.319
0.024,0.942,0.267,-4.639,0.732,-1.587
0.024,0.940,0.253,-6.287,1.221,-1.465
0.024,0.915,0.258,-4.395,1.221,-1.770
0.025,0.916,0.261,-1.160,1.160,-1.526
0.031,0.933,0.263,0.366,1.343,-1.526
0.028,0.931,0.267,1.770,0.793,-1.343
0.019,0.931,0.269,3.235,0.061,-0.610
0.014,0.936,0.269,2.869,-0.610,-0.305
0.008,0.934,0.261,1.770,0.061,-0.366
0.012,0.923,0.265,0.122,0.488,-0.854
0.017,0.932,0.265,0.427,1.038,-1.282
0.019,0.935,0.267,0.427,0.793,-0.977
0.020,0.923,0.280,0.610,0.671,-1.404
0.025,0.915,0.275,0.244,-0.061,-1.465
0.022,0.925,0.279,-0.183,-0.366,-1.160
0.020,0.939,0.273,0.427,0.366,-0.732
0.015,0.950,0.262,0.977,0.671,-0.366
0.018,0.941,0.256,-1.160,0.916,-0.366
0.022,0.923,0.259,-0.427,0.610,-0.732
0.021,0.927,0.266,1.404,0.488,-0.183
0.021,0.932,0.270,1.526,0.549,0.305
0.017,0.940,0.265,-0.122,0.854,0.305
0.050,0.997,0.276,-40.100,10.742,2.075
0.053,0.926,0.209,-62.439,11.353,0.854
0.095,0.808,0.223,-78.186,12.024,-3.418
0.188,0.677,0.406,-67.810,6.226,-4.761
0.244,0.649,0.478,-44.678,-2.563,1.831
0.156,0.774,0.348,-48.218,-9.094,6.287
0.022,0.942,0.313,-70.679,-8.789,4.578
-0.024,1.016,0.320,-73.547,-10.132,5.676
-0.032,1.000,0.353,-52.185,-13.550,7.751
-0.026,0.868,0.345,-28.015,-15.503,9.216
-0.037,0.721,0.398,-11.047,-17.151,10.315
-0.109,0.716,0.401,-2.258,-20.264,9.216
-0.179,0.916,0.267,-11.230,-19.775,8.728
-0.191,1.216,0.050,-30.945,-13.062,10.376
-0.122,1.425,-0.052,-37.842,-2.747,9.033
0.005,1.357,0.062,-18.799,3.479,6.714
0.124,1.084,0.187,14.709,3.235,10.071
0.137,0.804,0.280,37.170,-3.601,12.390
0.032,0.721,0.343,35.034,-8.484,7.690
-0.034,0.761,0.335,15.015,-6.287,2.014
-0.030,0.799,0.320,-0.122,-1.404,0.183
-0.002,0.883,0.254,-4.700,4.272,1.587
0.036,0.960,0.230,-8.057,6.165,2.136
0.045,0.964,0.243,-4.822,4.456,1.160
0.027,0.910,0.262,-0.854,2.380,0.122
0.013,0.900,0.250,2.380,0.671,0.061
0.016,0.939,0.244,3.845,0.061,-0.854
0.022,0.983,0.231,4.944,-0.793,-1.465
0.019,0.947,0.220,8.118,-1.526,-1.526
0.007,0.899,0.216,8.850,-1.709,-1.648
0.011,0.898,0.234,4.395,-0.061,-1.709
0.024,0.909,0.231,-1.099,0.977,-1.465
0.027,0.908,0.229,-2.991,1.953,-0.916
0.023,0.923,0.242,-0.427,2.258,-0.610
0.019,0.943,0.232,0.610,1.892,-0.488
0.025,0.935,0.227,0.427,1.160,-1.282
0.022,0.913,0.255,3.845,0.671,-1.587
0.013,0.914,0.259,7.751,0.000,-1.282
0.004,0.921,0.240,5.310,-0.488,-1.282
-0.002,0.932,0.240,-1.160,-0.244,-1.648
0.000,0.933,0.255,-1.526,0.427,-2.747
0.009,0.920,0.262,0.916,0.916,-2.686
0.012,0.932,0.246,-0.916,0.916,-2.686
0.013,0.937,0.249,-1.404,1.404,-2.991
0.020,0.929,0.264,0.244,1.892,-2.808
0.020,0.933,0.260,2.563,1.038,-2.502
0.007,0.945,0.239,1.831,0.549,-1.953
0.008,0.951,0.242,-0.977,0.244,-2.625
0.011,0.930,0.258,1.404,0.122,-2.380
0.004,0.926,0.260,3.296,0.549,-1.221
0.006,0.952,0.256,0.366,0.916,-0.977
0.011,0.946,0.248,-2.563,1.221,-0.793
0.007,0.921,0.253,-0.122,1.221,-0.427
0.009,0.934,0.251,3.296,1.221,0.061
0.011,0.944,0.247,1.587,1.404,0.427
0.011,0.934,0.256,0.977,1.709,-0.183
0.010,0.931,0.251,3.174,1.831,0.122
0.008,0.933,0.249,2.319,1.648,0.183
0.005,0.927,0.252,1.770,1.282,-0.366
0.016,0.913,0.269,1.709,0.854,-1.282
0.021,0.908,0.272,2.258,0.305,-1.221
0.016,0.914,0.270,0.916,0.488,-0.427
0.015,0.929,0.260,-0.916,0.305,-0.061
0.015,0.938,0.261,-1.343,0.244,-0.061
0.046,1.017,0.316,-22.156,5.737,2.563
0.054,0.979,0.296,-34.424,7.568,1.038
0.073,0.911,0.264,-51.086,6.348,-0.183
0.098,0.880,0.276,-51.208,4.883,-1.526
0.127,0.849,0.284,-53.589,1.587,0.793
0.129,0.821,0.341,-54.626,-0.671,3.174
0.107,0.867,0.375,-46.814,-2.808,3.113
0.077,0.943,0.291,-41.687,-4.761,4.150
0.050,0.920,0.335,-31.189,-5.310,7.629
0.000,0.867,0.375,-5.249,-6.348,12.329
-0.028,0.863,0.305,1.953,-7.019,14.832
-0.027,0.841,0.283,-7.019,-5.249,13.672
-0.066,0.862,0.281,-4.333,-3.235,12.573
-0.088,0.931,0.262,-8.118,-1.587,9.644
-0.033,0.976,0.270,-13.489,-1.648,4.700
0.010,0.960,0.287,-6.348,-4.089,2.930
-0.024,0.963,0.251,5.310,-6.470,3.296
-0.052,1.028,0.213,6.165,-3.845,5.249
0.011,1.066,0.196,-0.977,-1.648,6.287
0.085,0.980,0.247,2.502,-2.319,5.554
0.081,0.879,0.314,13.123,-5.859,5.493
0.037,0.871,0.299,11.719,-8.362,4.211
0.003,0.883,0.295,1.038,-7.019,1.831
-0.019,0.918,0.273,-4.150,-4.150,1.465
-0.004,0.951,0.273,-8.362,-2.136,1.404
0.022,0.921,0.276,-4.639,-1.343,1.465
0.020,0.899,0.278,0.916,-1.038,1.709
0.021,0.915,0.256,2.075,0.610,1.709
0.021,0.915,0.259,-0.061,1.099,0.488
0.019,0.938,0.245,4.456,2.441,0.183
0.039,0.953,0.239,2.747,2.991,0.366
0.046,0.933,0.252,1.709,1.343,0.732
0.022,0.911,0.251,5.432,0.732,1.221
0.013,0.898,0.252,6.042,0.610,1.160
0.026,0.872,0.271,4.578,0.366,0.122
0.031,0.888,0.273,1.587,0.000,0.183
0.022,0.917,0.246,0.366,0.671,0.610
0.015,0.937,0.223,-0.427,1.282,0.610
0.015,0.936,0.228,-2.014,1.221,0.000
0.009,0.936,0.235,-1.099,1.892,-0.122
0.009,0.919,0.252,-0.610,2.380,-0.122
0.004,0.923,0.251,0.977,2.563,-0.610
0.003,0.912,0.259,-0.244,2.014,-1.343
0.006,0.903,0.280,2.136,0.977,-1.892
0.016,0.915,0.283,2.869,1.038,-1.404
0.013,0.922,0.282,1.038,1.038,-0.854
0.010,0.920,0.269,0.183,0.671,-0.732
0.009,0.922,0.263,-1.099,0.366,-0.549
0.015,0.927,0.264,-1.465,1.587,-0.488
0.020,0.918,0.275,-1.526,2.014,-0.488
0.013,0.926,0.263,-0.366,2.808,-0.488
0.013,0.927,0.274,-1.221,2.502,-0.549
0.010,0.925,0.278,2.075,1.587,-0.305
0.007,0.933,0.287,4.028,1.160,-0.305
0.005,0.926,0.277,4.089,1.099,-0.427
0.005,0.919,0.278,1.404,0.427,-0.366
0.010,0.920,0.285,-0.244,0.305,-0.549
0.013,0.927,0.276,-0.732,0.183,-0.488
0.020,0.926,0.271,-2.563,0.977,0.000
0.025,0.924,0.279,-2.441,1.038,-0.793
0.024,0.948,0.277,0.549,1.404,-0.793
0.028,0.955,0.271,0.732,1.587,-0.793
0.026,0.938,0.270,0.732,0.671,-1.526
0.018,0.935,0.264,1.465,0.549,-0.732
0.032,0.921,0.289,-29.785,5.493,2.319
0.031,0.935,0.286,-45.898,6.836,0.488
0.043,0.959,0.186,-68.848,10.315,-0.854
0.086,0.915,0.215,-84.045,14.221,-2.869
0.128,0.821,0.352,-67.261,11.536,-3.052
0.184,0.812,0.353,-44.678,4.272,0.549
0.210,0.835,0.405,-33.081,-1.465,5.005
0.140,0.853,0.382,-25.757,-7.751,7.996
0.032,0.873,0.354,-27.161,-11.841,11.963
-0.047,0.911,0.295,-29.968,-13.733,15.259
-0.092,0.902,0.322,-33.691,-15.686,15.564
-0.085,0.883,0.426,-26.367,-13.123,14.038
-0.071,0.885,0.472,-13.306,-15.503,13.428
-0.081,0.938,0.336,-1.343,-19.165,14.709
-0.116,1.087,0.095,-8.850,-18.066,15.869
-0.133,1.191,0.035,-18.433,-12.695,12.939
-0.098,1.115,0.157,-12.329,-8.179,9.766
-0.011,0.980,0.232,12.085,-3.052,9.644
0.064,0.872,0.273,23.865,-2.075,9.644
0.068,0.822,0.326,20.691,-4.395,7.446
0.023,0.813,0.324,10.376,-5.737,3.479
-0.000,0.860,0.327,3.296,-6.287,0.549
0.005,0.898,0.305,5.310,-4.761,0.366
0.008,0.941,0.263,5.371,-2.502,1.831
0.003,0.986,0.214,-2.502,-2.258,2.075
0.001,0.949,0.227,-6.958,-2.869,-0.122
-0.009,0.899,0.220,-1.526,-1.221,-0.610
-0.003,0.911,0.227,2.197,1.465,0.366
0.013,0.929,0.193,4.089,3.418,0.305
0.023,0.923,0.202,4.639,3.845,-0.427
0.024,0.922,0.231,7.935,3.174,-1.709
0.023,0.925,0.259,11.353,1.099,-1.770
0.018,0.909,0.277,12.817,0.732,-0.732
0.002,0.903,0.249,10.193,0.061,-0.427
0.010,0.903,0.251,2.136,0.366,-1.038
0.015,0.888,0.262,-0.610,1.221,-1.648
0.009,0.896,0.240,-2.197,1.770,0.122
0.008,0.922,0.243,-5.493,2.502,0.122
0.010,0.929,0.238,-4.333,2.441,-0.610
0.001,0.935,0.250,-0.061,1.892,-1.038
-0.006,0.942,0.247,2.380,1.831,-1.953
0.001,0.923,0.252,2.380,1.587,-3.052
0.003,0.908,0.275,4.089,1.038,-3.052
0.008,0.909,0.277,1.709,0.854,-2.502
0.004,0.902,0.278,-1.038,0.732,-2.502
-0.001,0.920,0.274,-2.563,1.038,-1.770
0.003,0.937,0.273,-2.625,1.282,-1.526
0.000,0.943,0.280,-1.343,1.587,-1.282
-0.001,0.957,0.256,-1.587,2.014,-1.221
0.002,0.948,0.245,-2.563,2.441,-1.831
0.004,0.929,0.259,0.305,2.625,-1.465
0.005,0.931,0.262,2.930,1.892,-0.610
-0.001,0.923,0.269,3.235,1.587,-0.366
-0.008,0.927,0.274,3.357,1.648,-0.793
0.001,0.932,0.289,1.770,1.404,-1.099
0.002,0.932,0.287,1.160,1.221,-0.732
-0.007,0.928,0.285,0.977,1.038,-0.427
-0.006,0.938,0.276,0.244,0.732,-0.305
-0.001,0.935,0.262,-1.038,1.282,-0.732
0.004,0.945,0.253,-2.441,1.404,-1.099
0.007,0.950,0.254,-0.610,1.526,-0.671
0.008,0.938,0.250,1.282,1.770,0.000
0.008,0.921,0.260,2.319,1.282,-0.244
0.012,0.917,0.273,3.296,1.343,-0.061