aX,aY,aZ,gX,gY,gZ
0.14,0.801,0.385,-68.115,74.158,-43.579
0.158,0.859,0.397,0.977,1.343,0.244
0.164,0.844,0.401,3.906,0.488,0.061
0.158,0.856,0.394,1.526,1.404,0.061
0.162,0.841,0.403,1.526,1.77,-0.61
0.165,0.85,0.4,-0.305,1.099,-0.183
0.163,0.856,0.4,1.038,0.732,-0.061
0.162,0.855,0.407,-0.671,0.732,-0.305
0.163,0.855,0.392,-0.61,0.427,0.977
0.156,0.851,0.4,0.122,-0.122,0.61
0.16,0.849,0.399,0.916,0,0.366
0.168,0.853,0.397,-0.183,0.305,0.183
0.164,0.858,0.393,-1.465,0.793,0
0.151,0.848,0.397,0.427,0.183,-0.488
0.162,0.86,0.391,-1.282,0.488,-1.16
0.164,0.859,0.394,-0.977,0.427,0
0.156,0.856,0.395,0.854,0.305,-0.183
0.161,0.853,0.401,-1.038,0,-0.427
0.163,0.864,0.397,-1.465,0.366,-0.061
0.162,0.852,0.396,0.427,0.061,-0.305
0.162,0.856,0.397,-0.671,0.549,-0.244
0.164,0.864,0.388,0.549,0.854,0.244
0.157,0.854,0.399,1.343,0.61,-0.244
0.161,0.856,0.391,0.854,1.343,-0.549
0.158,0.861,0.391,-0.244,1.099,0.244
0.164,0.857,0.397,1.099,0.854,0.366
0.168,0.855,0.4,1.221,0.854,0.244
0.16,0.858,0.4,0.671,0.366,0.366
0.158,0.864,0.391,0.244,0.61,0.427
0.166,0.859,0.395,0.305,0.122,0.244
0.164,0.863,0.397,0.244,0.793,0.061
0.168,0.856,0.388,0.793,0.549,0.854
0.159,0.851,0.399,1.526,-0.244,0.549
0.158,0.85,0.403,0.793,-0.244,-0.183
0.168,0.852,0.394,0.793,0.854,-0.244
0.16,0.845,0.396,1.465,0.305,-0.61
0.159,0.864,0.393,-0.488,0.977,-0.244
0.163,0.868,0.393,-1.038,1.282,0.671
0.161,0.85,0.398,1.892,0.244,0.366
0.157,0.863,0.395,-1.343,1.16,-0.244
0.167,0.861,0.391,1.099,1.038,-0.244
0.162,0.851,0.399,0.244,0.854,0.183
0.165,0.853,0.406,0.427,0.732,0.244
0.167,0.863,0.394,1.221,0.977,-0.183
0.159,0.855,0.394,-0.732,0.854,-0.183
0.159,0.852,0.403,0.488,-0.061,0.122
0.163,0.854,0.395,0.916,0.732,-0.244
0.166,0.863,0.39,0.122,0.854,0.488
0.157,0.859,0.391,0.427,0.244,0.244
0.158,0.856,0.396,-0.122,0.488,0.305
0.163,0.857,0.395,1.404,0.854,-0.488
0.165,0.863,0.398,0.122,1.282,-0.244
0.161,0.851,0.403,-0.427,0.916,0
0.17,0.859,0.395,0.183,1.099,-0.183
0.161,0.855,0.4,-0.916,0.549,0.549
0.161,0.863,0.396,0.793,0.183,0.427
0.169,0.854,0.392,1.648,-0.061,-0.427
0.162,0.864,0.387,-0.854,0.61,-0.854
0.161,0.86,0.384,0,1.16,-0.061
0.162,0.86,0.398,-0.427,1.282,0.366
0.166,0.86,0.4,0.671,0.977,-0.183
0.165,0.859,0.398,-0.061,1.221,-0.061
0.158,0.867,0.392,1.16,0.549,0.549
0.164,0.852,0.396,0.854,0.549,0.122
,,,,,
0.053,0.956,0.474,-19.653,10.193,2.502
0.102,0.618,0.414,44.006,13.916,9.644
0.209,1.129,0.284,53.345,17.456,-2.319
0.13,0.919,0.288,-6.836,-32.593,3.357
0.275,0.965,0.346,31.799,1.282,11.047
0.128,0.679,0.394,26.306,1.465,5.188
0.144,0.921,0.482,-14.038,-3.906,-6.958
0.135,0.823,0.478,1.831,-0.183,4.822
0.184,0.822,0.466,-2.686,0,-1.831
0.167,0.836,0.466,-1.648,-2.563,0.854
0.169,0.803,0.448,0.854,-0.977,0.488
0.166,0.839,0.448,-2.869,-1.892,-1.465
0.139,0.82,0.442,0.305,-1.221,-1.404
0.149,0.838,0.441,-1.343,0,-0.854
0.149,0.84,0.442,0.549,-1.038,0.427
0.152,0.829,0.448,0.549,1.282,0.122
0.156,0.82,0.458,1.831,1.16,0.977
0.148,0.827,0.453,0.488,1.099,0.061
0.161,0.825,0.467,0.061,-0.183,-0.61
0.158,0.841,0.457,-0.61,0.549,0.549
0.155,0.82,0.444,-0.61,0.244,-0.427
0.156,0.832,0.449,-1.038,-0.244,-0.305
0.145,0.836,0.444,-1.587,0.366,-0.488
0.159,0.836,0.444,-0.183,0.671,-0.488
0.154,0.838,0.448,0.244,0.549,0.488
0.151,0.835,0.446,15.503,0.61,0.366
0.155,0.83,0.449,0.488,0.549,0.488
0.15,0.835,0.45,-0.061,0.366,0.549
0.158,0.839,0.443,0.671,0.549,0.732
0.151,0.841,0.446,-0.366,0.366,0.366
0.153,0.84,0.448,0.916,0.732,-0.366
0.151,0.836,0.441,0.305,0.793,0.61
0.152,0.831,0.448,0.977,0.122,-0.244
0.155,0.84,0.448,0.61,0.916,0.366
0.154,0.824,0.451,0.977,0.305,0
0.147,0.837,0.449,-0.061,0.61,0.061
0.156,0.838,0.446,0.305,0.427,-0.366
0.152,0.838,0.449,0,0.366,0.305
0.15,0.831,0.443,0.732,0.366,0.244
0.151,0.831,0.441,0.427,0.427,0.549
0.15,0.837,0.445,0.305,0.488,0.244
0.156,0.835,0.444,0.427,0.793,0.122
0.151,0.833,0.45,0.671,0.916,-0.061
0.152,0.835,0.449,0.793,0.671,-0.427
0.156,0.842,0.446,-0.305,0.732,0.549
0.148,0.839,0.45,0.366,0.732,0.854
0.153,0.832,0.438,0.854,0.916,0.793
0.15,0.838,0.446,0.122,0.793,0.122
0.153,0.834,0.44,0.854,1.16,0
0.154,0.832,0.445,0.549,0.793,0.366
0.152,0.833,0.455,0.488,0.793,0.488
0.157,0.84,0.451,0.488,0.793,0.183
0.158,0.832,0.453,0.305,0.671,0
0.151,0.841,0.447,-0.793,0.488,0.183
0.149,0.84,0.445,0.122,0.305,0
0.153,0.842,0.449,-1.343,0.671,-0.061
0.154,0.84,0.438,0.488,0.427,0.977
0.15,0.841,0.445,0.244,0.366,0.977
0.149,0.841,0.448,3.357,0.549,1.221
0.148,0.829,0.449,1.465,0.977,1.526
0.151,0.839,0.447,-0.183,0.916,0.61
0.151,0.832,0.445,0.671,0.793,0.916
0.144,0.833,0.447,0.61,0.61,0.549
0.153,0.837,0.444,0.366,0.671,0.366
,,,,,
0.157,1,0.459,-6.592,7.568,0.305
0.32,0.707,0.437,-78.735,-0.732,-12.512
-0.069,0.847,0.423,-67.688,-26.917,10.254
-0.161,1.406,-0.209,-61.035,12.085,30.518
0.339,0.791,0.391,70.068,-15.747,-6.836
0.086,0.769,0.393,-4.395,4.517,6.042
0.156,0.867,0.378,13.55,4.761,1.221
0.152,0.854,0.368,-7.141,-0.793,-1.038
0.14,0.889,0.336,-6.592,5.371,-2.93
0.13,0.829,0.398,2.869,0.305,-4.211
0.12,0.875,0.364,-7.69,2.686,-3.967
0.142,0.891,0.365,0.977,1.465,-3.113
0.12,0.875,0.377,-2.136,-0.244,-1.648
0.149,0.906,0.358,-7.263,1.953,-0.671
0.139,0.866,0.376,1.465,-1.831,0.366
0.132,0.892,0.353,-0.671,0.122,0.305
0.145,0.87,0.367,1.465,0.183,-0.732
0.145,0.871,0.357,0.122,1.282,0.427
0.146,0.88,0.363,0.488,1.465,-0.305
0.138,0.88,0.367,-0.977,0.977,0.488
0.14,0.873,0.366,-0.305,0.854,-0.061
0.144,0.886,0.352,-0.488,1.099,-0.244
0.135,0.89,0.36,1.404,0.671,-0.427
0.149,0.877,0.357,0.793,1.465,-0.122
0.142,0.883,0.364,0.122,-0.061,0.122
0.139,0.872,0.362,0.488,1.343,0
0.15,0.87,0.376,0.061,0.305,-0.61
0.138,0.881,0.37,0.488,0.244,0.061
0.146,0.887,0.355,-0.793,0.488,0.305
0.141,0.879,0.37,-0.122,0.366,0
0.144,0.884,0.354,1.16,1.465,0.305
0.136,0.877,0.357,1.16,0.671,0.732
0.139,0.871,0.365,0.793,0.366,0.305
0.145,0.886,0.355,-0.977,1.465,0.122
0.135,0.868,0.365,0.671,1.038,0.244
0.145,0.883,0.358,-0.427,1.221,-0.61
0.145,0.89,0.369,-0.061,1.343,0.488
0.142,0.871,0.352,1.526,1.282,0.305
0.146,0.887,0.36,0.061,0.977,0.183
0.141,0.878,0.367,0.427,1.16,0.122
0.147,0.87,0.357,0.732,1.221,0
0.144,0.884,0.359,-0.427,0.977,0.244
0.136,0.872,0.385,1.099,0.305,0.854
0.146,0.847,0.365,2.502,0.671,0
0.138,0.882,0.362,-1.343,0.427,0.671
0.135,0.888,0.351,0.977,0.488,0.61
0.15,0.879,0.353,1.099,1.282,0.122
0.143,0.876,0.363,1.831,0.916,0.977
0.137,0.881,0.356,-0.244,0.854,0.793
0.146,0.88,0.362,0.854,1.343,0.061
0.138,0.884,0.368,0.305,1.038,0.732
0.143,0.882,0.359,1.038,1.282,0.427
0.14,0.869,0.366,0.244,0.854,0.61
0.139,0.881,0.371,0.977,0.732,0.671
0.147,0.876,0.357,0.977,1.038,0.427
0.146,0.87,0.361,1.099,0.977,-0.244
0.139,0.884,0.361,0.977,1.526,0.122
0.141,0.872,0.365,1.648,1.221,0.366
0.142,0.88,0.37,-0.671,1.282,0.366
0.143,0.883,0.367,0.854,0.916,0.488
0.139,0.868,0.364,0.183,0.61,0.061
0.142,0.879,0.365,0.854,0.305,0.366
0.14,0.88,0.364,-0.916,0.061,0.305
0.143,0.881,0.356,-0.549,0.366,0.488
,,,,,
0.23,0.856,0.325,-5.676,12.756,2.869
-0.004,1.241,0.084,29.602,12.634,-1.648
0.392,0.499,0.493,67.688,5.676,4.333
-0.086,0.983,0.359,-24.048,-20.874,0.61
0.173,0.864,0.352,34.851,2.502,2.136
0.164,0.791,0.393,8.057,3.662,-4.272
0.1,0.85,0.485,-1.038,-4.395,1.892
0.138,0.837,0.453,-0.488,1.831,-1.465
0.145,0.849,0.443,0.793,-1.526,1.526
0.117,0.826,0.455,2.502,-1.709,2.136
0.145,0.857,0.445,-3.296,-0.244,-1.831
0.135,0.83,0.439,-0.549,-1.587,0.244
0.127,0.827,0.428,0.549,-0.244,-1.099
0.13,0.839,0.434,0.427,0.549,0.427
0.119,0.844,0.438,0.549,-0.061,-0.061
0.131,0.836,0.447,1.648,1.16,-0.366
0.138,0.846,0.446,0.854,0.977,0.549
0.135,0.839,0.441,0.122,0.183,-0.305
0.139,0.831,0.442,-0.061,0.549,0
0.136,0.838,0.433,0.488,0.244,-0.427
0.135,0.838,0.445,-0.977,-0.183,-1.343
0.137,0.851,0.437,0.549,-0.061,-0.183
0.133,0.841,0.447,0.488,-0.061,0.183
0.137,0.839,0.443,0.427,-0.427,0.122
0.135,0.845,0.444,0.61,0.366,0.183
0.135,0.836,0.441,-0.793,0.061,-0.061
0.132,0.838,0.432,1.282,0.305,0.61
0.128,0.842,0.439,0.305,0.366,0
0.135,0.841,0.443,0.977,0.61,0.305
0.132,0.847,0.438,0.244,0.732,0.671
0.131,0.841,0.445,0.549,0.427,-0.244
0.136,0.845,0.444,0.366,0.488,0
0.13,0.838,0.439,0.854,0.854,0.366
0.132,0.843,0.437,-0.427,0.61,-0.671
0.132,0.846,0.443,0.122,-0.061,-0.183
0.131,0.839,0.434,0.366,1.099,0.549
0.133,0.85,0.436,-0.732,0.671,-0.061
0.141,0.843,0.442,0.916,0.732,-0.61
0.134,0.84,0.439,0.244,1.038,-0.244
0.136,0.838,0.443,1.404,1.221,0.366
0.141,0.851,0.442,0.122,1.099,-0.061
0.132,0.841,0.45,0.244,0.793,0.427
0.137,0.851,0.437,0.488,0.854,0.427
0.14,0.846,0.437,-0.183,0.793,0.427
0.137,0.835,0.442,0.366,0.732,0.549
0.133,0.843,0.437,0.244,0.977,0.183
0.132,0.833,0.427,0.183,1.343,0.61
0.132,0.842,0.437,-0.122,1.038,0
0.134,0.868,0.436,-0.366,1.221,0.122
0.13,0.838,0.438,0.977,1.221,0.61
0.137,0.854,0.437,-0.122,1.099,-0.061
0.128,0.844,0.444,0.671,0.244,0.916
0.141,0.85,0.437,0.488,1.16,0.488
0.137,0.829,0.437,-0.244,0.427,0.671
0.132,0.839,0.439,0.671,1.038,-0.244
0.136,0.841,0.435,1.038,1.16,0.061
0.129,0.843,0.441,0.305,0.977,0.122
0.139,0.846,0.439,0,0.732,0.122
0.141,0.844,0.434,0.427,0.732,0.366
0.133,0.837,0.44,0,0.916,-0.427
0.133,0.844,0.434,1.16,0.244,0.244
0.137,0.841,0.431,0.61,0.366,-0.305
0.141,0.848,0.437,-0.244,0.671,-0.305
0.134,0.84,0.433,0.671,0,0.549
,,,,,
0.122,0.988,0.431,-6.714,8.545,1.648
0.209,0.765,0.329,-65.674,15.198,-3.418
0.088,0.917,0.45,-62.073,-14.771,-0.854
-0.118,0.929,0.411,-48.096,-9.766,11.841
0.221,0.952,0.326,25.574,-5.432,8.423
0.123,0.763,0.399,16.907,-8.667,7.568
0.119,0.9,0.355,0.671,3.784,2.869
0.137,0.856,0.33,2.991,0.122,-2.319
0.096,0.85,0.392,0.61,1.587,-1.709
0.095,0.901,0.315,-7.446,6.897,-2.075
0.119,0.87,0.367,2.502,3.418,-2.441
0.114,0.886,0.374,-2.014,4.944,-1.587
0.128,0.906,0.367,0.61,4.517,0.183
0.124,0.872,0.384,-0.244,2.014,-0.122
0.124,0.891,0.367,-0.977,1.709,-0.122
0.13,0.865,0.361,0.488,0.427,-0.61
0.128,0.886,0.367,-1.831,-0.305,-0.549
0.123,0.883,0.357,-0.305,0.122,-1.282
0.131,0.874,0.36,-0.305,0,-0.793
0.134,0.89,0.348,-2.991,0.488,0.183
0.129,0.886,0.361,1.526,0.732,-0.122
0.124,0.872,0.358,-1.221,0.916,-0.671
0.127,0.877,0.35,0.793,0.61,-0.061
0.116,0.884,0.357,2.075,-0.061,0.366
0.133,0.896,0.356,1.831,0.488,-0.183
0.133,0.881,0.344,-0.366,1.465,0
0.127,0.867,0.363,0.488,0.061,-0.244
0.127,0.891,0.359,0.916,0.366,0.366
0.132,0.872,0.356,1.892,0.977,-0.244
0.132,0.875,0.359,-0.977,0.854,-0.732
0.117,0.895,0.341,-0.793,0.916,-0.305
0.127,0.883,0.356,1.282,-0.122,0
0.134,0.893,0.36,0.305,0.488,0.732
0.132,0.893,0.331,-1.465,1.831,-0.244
0.121,0.871,0.351,0.427,0.488,-0.427
0.12,0.899,0.352,0.732,1.099,0.183
0.134,0.882,0.353,2.625,0.916,0.366
0.135,0.894,0.354,0.122,0.916,0.61
0.129,0.882,0.348,-1.526,1.282,-0.366
0.126,0.887,0.366,-15.259,0.61,0.854
0.117,0.865,0.354,2.686,-0.366,0.366
0.139,0.891,0.35,0.305,0.977,-15.198
0.127,0.877,0.35,0.977,0.549,0.305
0.129,0.885,0.341,-1.282,0.916,-0.244
0.125,0.885,0.346,-1.099,0.61,0.183
0.127,0.889,0.358,0.977,0.549,0.061
0.133,0.892,0.352,-0.427,1.16,-0.183
0.125,0.882,0.351,-0.427,0.671,-0.244
0.129,0.885,0.352,-0.916,0.854,0.183
0.129,0.876,0.351,0.122,0.793,-0.366
0.135,0.877,0.352,0.732,0.854,-1.343
0.142,0.876,0.352,-0.793,0.061,-1.343
0.136,0.905,0.347,-3.113,-0.122,-1.587
0.13,0.892,0.341,-0.244,0.732,-1.16
0.126,0.89,0.338,0.061,0.977,0
0.129,0.896,0.345,1.404,0.854,0.977
0.133,0.891,0.346,0.977,0.549,1.526
0.133,0.89,0.345,1.038,0.977,1.099
0.13,0.884,0.349,1.16,0.61,1.038
0.13,0.884,0.345,0.366,1.221,0.793
0.133,0.889,0.345,-0.183,1.282,0.793
0.128,0.881,0.343,1.16,0.488,0.366
0.129,0.888,0.345,0.061,0.671,0.854
0.131,0.884,0.345,0.793,0.671,0.427
,,,,,
0.548,0.623,0.571,58.35,7.385,-4.333
-0.176,0.885,0.422,-18.372,-23.804,5.676
0.097,0.821,0.295,41.382,1.404,7.446
0.132,0.919,0.377,-10.071,3.174,-4.089
0.096,0.846,0.448,4.944,-6.653,7.08
0.14,0.85,0.42,6.104,0.061,1.343
0.151,0.846,0.434,1.221,-0.305,1.77
0.121,0.84,0.428,1.221,-1.648,2.258
0.132,0.845,0.426,0.977,0.61,-1.77
0.129,0.838,0.43,0.488,-1.404,-0.793
0.124,0.849,0.429,0.977,0.427,-1.892
0.134,0.853,0.416,1.648,-0.305,-0.977
0.124,0.85,0.417,1.587,0.244,0.427
0.123,0.86,0.426,1.953,1.16,-0.854
0.125,0.858,0.433,-0.122,0.671,-0.366
0.129,0.857,0.43,0.122,1.709,-0.488
0.129,0.855,0.429,-0.427,0.427,-0.793
0.131,0.843,0.43,0.488,0.671,-0.183
0.13,0.858,0.44,-0.488,0.488,-0.488
0.125,0.849,0.413,0.732,0.549,0.488
0.128,0.848,0.426,-0.366,-0.183,-0.549
0.125,0.852,0.431,0.305,0.488,0.427
0.132,0.85,0.421,1.038,1.343,-0.244
0.128,0.852,0.424,0.61,0.793,0.061
0.126,0.849,0.434,1.587,0.305,0.488
0.137,0.85,0.427,1.221,0.916,0.122
0.129,0.845,0.426,1.221,0.427,0.61
0.125,0.849,0.436,0.732,0.732,-0.122
0.133,0.847,0.427,1.038,1.221,-0.488
0.126,0.851,0.431,0.977,0.122,0.671
0.128,0.848,0.433,0.305,0.427,0.671
0.13,0.855,0.428,0.488,0.854,0
0.123,0.842,0.428,0.854,0.427,0.061
0.125,0.85,0.427,0.244,0.977,0.061
0.128,0.847,0.434,0.916,0.732,-0.244
0.128,0.857,0.438,0.366,1.038,0.366
0.127,0.852,0.425,0.122,0.244,0.732
0.128,0.846,0.423,-0.366,0.183,0.427
0.129,0.844,0.433,0.488,0.427,0
0.127,0.85,0.427,0.549,0.854,0.61
0.132,0.856,0.425,0.549,0.488,-0.427
0.124,0.843,0.432,0.488,1.038,0.793
0.127,0.84,0.428,0.732,1.038,0.366
0.129,0.849,0.423,1.343,1.16,0.854
0.126,0.854,0.427,0.244,0.732,0.854
0.132,0.851,0.428,-0.305,0.916,0
0.13,0.85,0.426,0.366,0.488,0.061
0.123,0.844,0.434,0.061,0.916,0.488
0.127,0.849,0.427,0.793,0.854,0.488
0.128,0.852,0.432,-0.244,0.671,-0.183
0.122,0.849,0.43,0.244,0.671,0.671
0.133,0.853,0.424,0.061,0.916,0
0.13,0.849,0.427,0,0.732,0.061
0.128,0.845,0.422,0.305,0.732,0.366
0.124,0.858,0.421,0.305,0.549,0.183
0.124,0.851,0.427,0.427,0.549,0
0.127,0.86,0.429,0.61,0.732,0.122
0.125,0.852,0.428,0.61,0.488,0.366
0.131,0.852,0.425,0.916,0.916,0.732
0.122,0.849,0.427,0.244,0.427,0.671
0.13,0.849,0.429,0.61,1.221,0.183
0.128,0.86,0.416,0.488,0.305,0.488
0.127,0.85,0.43,0.427,0.854,-0.427
0.13,0.85,0.425,0.977,0.854,0.61
,,,,,
0.132,0.965,0.427,-14.954,6.836,0.977
0.19,0.845,0.351,-51.636,6.653,-1.831
0.135,0.895,0.442,-55.115,-11.108,0.793
-0.034,0.695,0.441,-19.653,-19.714,30.64
0.162,1.248,0.214,-20.02,6.958,3.967
0.088,0.775,0.425,12.634,-10.254,-2.075
0.1,0.903,0.307,-9.216,1.709,-1.343
0.122,0.857,0.327,9.644,-1.038,-4.517
0.089,0.901,0.315,-7.263,2.93,-2.197
0.113,0.885,0.337,3.784,1.831,-3.052
0.104,0.904,0.322,-1.526,2.441,-0.793
0.117,0.907,0.328,2.38,3.479,-0.61
0.111,0.904,0.339,1.221,2.258,0.305
0.12,0.886,0.35,1.77,2.747,1.526
0.124,0.881,0.348,0.366,1.587,1.526
0.111,0.874,0.342,1.587,0.427,0.61
0.12,0.895,0.336,-1.221,0.854,-0.366
0.12,0.876,0.35,0.671,-0.732,0.244
0.117,0.88,0.332,1.77,0.854,-0.244
0.117,0.894,0.321,1.831,0.61,0.366
0.116,0.909,0.326,-1.77,0.977,0.732
0.123,0.88,0.333,0.061,1.526,-0.671
0.112,0.882,0.349,1.099,1.587,-0.427
0.115,0.895,0.338,0.854,1.221,-0.671
0.122,0.908,0.33,-0.549,0.671,-0.366
0.113,0.894,0.328,-0.488,0.488,0
0.12,0.895,0.345,0.977,1.099,0.061
0.118,0.899,0.33,0.793,0.732,-0.427
0.121,0.89,0.333,-0.793,1.221,-0.305
0.113,0.894,0.331,2.197,-0.122,-0.427
0.12,0.892,0.328,3.235,1.587,-2.319
0.13,0.884,0.337,0.549,1.404,-2.93
0.127,0.898,0.335,-0.793,1.648,-1.526
0.125,0.895,0.351,0.793,0.793,-0.61
0.124,0.9,0.34,-0.977,1.221,-0.061
0.127,0.896,0.341,-0.854,0.61,0.427
0.12,0.885,0.336,2.319,-0.244,0
0.13,0.884,0.333,0.732,0.671,-0.916
0.134,0.877,0.333,0.977,0.366,-1.404
0.135,0.901,0.332,0.61,1.099,-1.709
0.13,0.893,0.343,0.549,1.465,-0.366
0.122,0.895,0.337,0.916,1.16,0.549
0.132,0.899,0.342,0.549,0.916,1.038
0.128,0.887,0.351,1.648,-0.244,1.465
0.135,0.89,0.332,1.16,1.038,1.526
0.129,0.889,0.334,-0.122,0.732,1.648
0.124,0.903,0.325,-0.854,0.916,0.549
0.125,0.899,0.327,-1.038,1.038,0.61
0.125,0.883,0.34,2.075,0.793,0.793
0.123,0.897,0.34,1.404,1.038,0.732
0.126,0.897,0.333,-0.366,1.343,0.61
0.123,0.904,0.338,0.488,0.916,0.793
0.124,0.891,0.334,0.366,1.038,0.61
0.126,0.895,0.34,0.732,0.854,0.488
0.126,0.889,0.337,0.732,0.793,0.427
0.129,0.891,0.34,0.732,0.549,0.61
0.123,0.895,0.329,0.244,0.488,0.549
0.127,0.891,0.332,0.977,1.343,-0.061
0.123,0.886,0.336,0.916,0.488,-0.122
0.128,0.884,0.35,1.16,1.16,0.549
0.133,0.889,0.339,1.709,0.793,0.244
0.127,0.885,0.344,-0.916,0.916,-0.61
0.125,0.893,0.326,-0.549,0.793,0.61
0.119,0.911,0.321,-0.61,0.488,0
,,,,,
0.166,1.041,0.325,-27.893,5.615,-5.371
-0.017,0.816,0.239,57.739,2.563,-6.47
0.464,0.672,0.451,68.665,21.24,4.883
-0.127,1.223,0.338,-17.395,-22.827,1.953
0.189,0.851,0.357,18.433,3.967,8.24
0.172,0.843,0.363,8.606,8.362,-9.766
0.086,0.859,0.492,1.404,-6.104,4.883
0.15,0.862,0.435,3.906,1.099,2.869
0.162,0.841,0.447,1.16,-1.038,0.305
0.1,0.833,0.442,2.808,-4.639,5.615
0.137,0.834,0.415,1.587,2.136,-2.014
0.132,0.838,0.427,-0.854,-1.343,-0.488
0.112,0.842,0.427,0.061,-0.61,-0.366
0.135,0.854,0.409,-0.366,0.793,-1.77
0.123,0.848,0.432,-0.488,0.427,0.854
0.122,0.861,0.427,0.549,1.465,-0.183
0.133,0.85,0.429,0.793,1.587,0
0.127,0.844,0.437,1.343,0.549,-0.244
0.135,0.849,0.433,-0.488,1.038,0.549
0.134,0.847,0.429,0.183,0.427,-0.488
0.128,0.852,0.437,-0.549,0,-0.427
0.124,0.85,0.417,1.099,0.793,0.122
0.123,0.852,0.426,-0.366,0.427,-0.732
0.123,0.844,0.431,-0.732,-0.061,-0.305
0.129,0.861,0.421,0.366,0.793,-0.122
0.126,0.855,0.425,-0.305,0.183,0.427
0.126,0.855,0.427,-0.244,0.305,0.549
0.135,0.852,0.429,0.61,0.793,0.366
0.131,0.853,0.423,-0.549,1.038,-0.061
0.132,0.842,0.434,0.244,0.61,0.671
0.128,0.842,0.421,0.366,0.61,0.549
0.128,0.851,0.416,1.038,1.221,-0.366
0.125,0.849,0.436,-0.793,0.305,-0.549
0.134,0.857,0.425,0,1.343,-0.366
0.135,0.855,0.424,0.854,0.854,0.305
0.131,0.846,0.436,-0.183,0.488,0.61
0.131,0.845,0.428,0.549,0.671,0.427
0.13,0.846,0.428,0.305,0.488,-0.427
0.127,0.85,0.43,-0.061,0.122,0
0.129,0.856,0.424,0.244,1.099,0.244
0.129,0.859,0.429,-0.122,1.099,0.244
0.123,0.856,0.424,0.244,0.305,0.732
0.129,0.849,0.433,-0.549,0.793,0.366
0.138,0.864,0.426,-3.479,0.977,-0.061
0.133,0.866,0.415,-0.183,0.732,0.305
0.128,0.844,0.428,0.549,-0.183,-0.183
0.126,0.854,0.425,0.61,0.122,0.427
0.13,0.856,0.423,0.427,0.427,-0.061
0.123,0.853,0.422,0.244,-0.061,0.488
0.127,0.858,0.426,1.099,0.732,-0.549
0.129,0.856,0.422,1.221,0.305,0.244
0.124,0.846,0.42,1.526,0.488,1.648
0.13,0.856,0.424,0.244,1.16,0.854
0.135,0.856,0.428,0.732,0.61,0.366
0.123,0.849,0.425,0,0.916,0.305
0.125,0.854,0.42,0.916,1.099,0.183
0.127,0.851,0.427,-0.061,1.099,-0.061
0.128,0.859,0.426,0.549,1.343,0.488
0.128,0.851,0.424,1.038,0.61,0.732
0.129,0.856,0.427,0.488,0.549,0.427
0.126,0.849,0.425,1.099,1.038,0.549
0.124,0.852,0.427,0.366,0.854,0.366
0.127,0.851,0.426,0.122,0.366,0.061
0.129,0.854,0.422,0.61,0.793,0.793
,,,,,
0.108,0.958,0.434,-17.639,6.409,1.648
0.278,0.683,0.396,-52.246,2.563,-3.113
-0.092,0.805,0.414,-55.359,-21.606,3.296
-0.106,0.925,0.241,-57.434,0.732,16.235
0.371,0.957,0.292,45.532,-6.165,-4.028
0.098,0.785,0.371,2.563,-2.93,5.127
0.165,1.011,0.301,-8.606,8.484,3.235
0.104,0.816,0.332,9.338,-1.282,0.122
0.088,0.91,0.282,-6.653,2.075,0.183
0.123,0.879,0.338,3.845,2.319,-3.174
0.106,0.923,0.31,-1.587,3.418,-1.16
0.119,0.863,0.345,3.418,3.174,-1.404
0.121,0.926,0.331,-4.761,3.235,-1.16
0.102,0.863,0.359,2.625,0.488,0.549
0.116,0.917,0.326,-2.38,1.404,0.366
0.127,0.894,0.342,0.488,-0.244,-0.671
0.113,0.89,0.33,-0.061,-0.977,0.183
0.125,0.901,0.305,-3.113,1.099,0
0.111,0.879,0.339,2.441,-0.305,-0.366
0.121,0.9,0.325,0.305,1.77,-0.427
0.118,0.885,0.324,0.732,1.953,-0.305
0.11,0.898,0.329,-0.244,1.099,-0.061
0.122,0.892,0.337,2.197,1.099,-0.122
0.121,0.9,0.334,-0.732,1.099,-0.549
0.117,0.89,0.323,0.305,0.977,0.305
0.119,0.896,0.328,-0.183,0.183,-0.549
0.114,0.898,0.328,0,0.732,0.122
0.123,0.894,0.321,0.732,0.61,0.427
0.118,0.895,0.328,-1.038,0.671,0.427
0.111,0.893,0.332,-0.977,0.793,-0.793
0.119,0.894,0.329,-0.244,0.671,0.427
0.115,0.902,0.324,0.732,0.488,0.061
0.126,0.892,0.332,-0.671,0.549,-0.671
0.111,0.9,0.338,-1.404,1.16,0.305
0.112,0.892,0.325,3.052,-0.122,0.549
0.127,0.896,0.323,-0.854,1.038,0.305
0.123,0.891,0.318,-1.709,0.671,-0.671
0.112,0.894,0.319,-1.099,1.282,-0.122
0.116,0.896,0.331,1.648,0.61,-0.061
0.121,0.906,0.335,-0.366,0.977,0.366
0.119,0.901,0.32,1.831,1.038,0.61
0.12,0.889,0.333,0.061,0.793,0.671
0.125,0.895,0.324,3.54,0.305,1.099
0.11,0.9,0.311,0.183,-0.122,1.648
0.117,0.887,0.333,3.357,1.526,0.122
0.12,0.897,0.337,0.366,0.61,-0.366
0.122,0.909,0.32,-1.038,2.319,-0.061
0.119,0.888,0.331,0.488,1.343,-0.061
0.115,0.892,0.337,2.563,0.122,0.671
0.119,0.901,0.313,-1.038,0.916,0
0.116,0.892,0.321,2.075,0.854,0.244
0.116,0.893,0.337,0.732,0.732,0.305
0.115,0.902,0.331,0.061,0.854,0.244
0.118,0.89,0.34,0.793,1.099,-0.061
0.12,0.897,0.332,0.244,0.671,0.305
0.122,0.9,0.318,0,1.404,0.488
0.119,0.898,0.34,-1.038,0.549,0.549
0.118,0.899,0.327,1.099,1.038,0.916
0.12,0.892,0.321,0.854,1.038,-0.183
0.12,0.895,0.338,-0.732,0.671,-0.61
0.118,0.902,0.322,0.305,1.587,0.244
0.118,0.882,0.336,1.892,0.427,0.305
0.128,0.906,0.337,1.526,-0.305,0.305
0.126,0.894,0.333,2.991,0.61,0.61
,,,,,
0.473,0.281,0.756,44.25,-5.92,2.38
0.036,1.077,0.365,-23.987,-4.15,0.61
0.103,0.667,0.391,37.659,7.141,9.399
0.157,0.983,0.434,-10.315,2.625,-10.376
0.107,0.826,0.452,3.845,-5.554,11.047
0.146,0.836,0.422,1.587,0.061,-4.089
0.119,0.855,0.425,-2.136,-3.052,0.488
0.102,0.835,0.402,1.343,-1.831,-0.244
0.124,0.866,0.399,-4.517,-0.854,-3.784
0.099,0.858,0.425,-0.549,-1.648,-0.854
0.117,0.864,0.416,0.061,1.16,-1.526
0.121,0.874,0.412,0.244,0.427,0.183
0.118,0.863,0.412,-0.61,0.732,0.061
0.126,0.853,0.422,0.61,0.732,0.061
0.118,0.852,0.401,0.793,0.061,1.038
0.122,0.855,0.412,0.854,0.854,-1.404
0.13,0.855,0.414,0.244,0.488,0.061
0.121,0.862,0.415,0.244,0.854,0.366
0.118,0.86,0.413,0,0.61,0.366
0.122,0.859,0.416,0.183,0.671,0
0.12,0.858,0.414,0.854,0.183,0.366
0.125,0.86,0.416,-0.366,1.099,-0.244
0.12,0.857,0.413,0.122,0.732,-0.427
0.116,0.852,0.416,0.854,0.244,0.305
0.121,0.864,0.409,0.305,0.916,0.61
0.121,0.859,0.409,-0.427,-0.061,0.061
0.125,0.854,0.41,-0.061,0.61,0
0.117,0.847,0.409,0.244,-0.061,-0.488
0.121,0.852,0.417,0.122,0.244,-0.488
0.121,0.86,0.41,0.549,0.305,0.244
0.124,0.862,0.413,0.061,0.61,-0.305
0.118,0.867,0.409,0.183,0.305,0.244
0.119,0.86,0.41,0.305,1.038,-0.366
0.117,0.853,0.408,1.526,0.732,-0.061
0.116,0.851,0.416,0.854,0.122,0.488
0.121,0.856,0.415,0.122,0.854,0.427
0.126,0.852,0.415,-0.061,0.977,-0.488
0.118,0.869,0.411,0,0.671,0.366
0.114,0.864,0.411,0.061,0.732,0.244
0.124,0.864,0.415,0.488,0.732,-0.183
0.12,0.856,0.411,0.854,0.549,0.916
0.119,0.858,0.406,0.732,0.305,0.549
0.118,0.857,0.417,0.427,0.427,0.549
0.118,0.86,0.411,0.305,1.282,0.793
0.126,0.862,0.405,1.099,0.977,0.183
0.127,0.864,0.408,0.061,0.793,0.183
0.116,0.855,0.416,0.488,1.16,0.977
0.119,0.851,0.408,1.099,0.977,1.099
0.116,0.858,0.406,0.977,0.793,-0.061
0.115,0.864,0.409,1.526,1.526,0.488
0.12,0.862,0.423,1.221,0.916,0.488
0.114,0.857,0.416,0.671,0.061,1.16
0.117,0.848,0.412,0.671,0.427,0.305
0.123,0.86,0.416,-0.122,0.427,0.305
0.115,0.857,0.409,0.671,0.549,0.549
0.122,0.859,0.406,-0.183,1.038,0
0.121,0.853,0.418,0.977,0.671,-0.183
0.119,0.861,0.407,0.793,1.038,0.366
0.116,0.858,0.411,0.427,0.366,0.061
0.117,0.854,0.415,0.488,0.549,-0.244
0.117,0.856,0.41,0.671,1.038,0.122
0.111,0.863,0.409,0.061,0.732,-0.183
0.114,0.852,0.409,1.343,0.549,0
0.115,0.859,0.407,0.427,1.099,0.427
,,,,,
0.085,1.056,0.459,-67.017,-15.686,-2.441
-0.207,1.171,-0.008,-46.692,-11.23,19.653
0.226,0.754,0.364,50.903,-13,-7.568
0.143,0.894,0.33,-19.409,3.113,3.296
0.142,0.915,0.32,20.203,-1.648,-0.305
0.12,0.911,0.295,-9.277,3.845,-0.732
0.09,0.851,0.31,7.202,2.441,-1.404
0.106,0.907,0.316,-1.709,1.953,-1.221
0.119,0.897,0.314,0.732,4.456,-1.16
0.105,0.899,0.344,2.686,3.784,0.305
0.125,0.917,0.326,-2.441,4.272,-0.061
0.123,0.896,0.34,-1.099,2.502,0.488
0.104,0.898,0.335,-0.305,0.244,0.244
0.118,0.894,0.332,-0.427,0,-0.916
0.118,0.902,0.319,-0.793,-0.061,-0.61
0.117,0.898,0.312,-1.038,1.16,0.183
0.114,0.911,0.312,-2.991,1.77,-1.892
0.112,0.894,0.32,1.282,0.793,-1.282
0.118,0.912,0.312,0,1.831,-0.366
0.119,0.902,0.321,0.916,-0.061,-0.305
0.117,0.884,0.334,0.916,0.549,0.122
0.122,0.902,0.323,-0.732,0.305,-0.305
0.111,0.894,0.311,3.479,0.122,0.977
0.127,0.899,0.326,0.366,1.099,-0.122
0.101,0.895,0.327,-0.366,0.305,0
0.119,0.902,0.317,0,0,0.671
0.127,0.891,0.323,-0.732,0.671,0.488
0.115,0.911,0.327,0.793,0.549,0.366
0.115,0.892,0.318,1.465,0.244,0.305
0.117,0.9,0.315,0.305,1.038,0
0.109,0.894,0.33,1.892,0.183,0.793
0.118,0.898,0.319,0.183,1.038,0.366
0.119,0.889,0.324,2.502,0.244,0.549
0.119,0.902,0.32,-1.099,0.732,-0.183
0.112,0.906,0.324,0.793,0.793,0.366
0.113,0.893,0.323,2.991,0.793,0.366
0.118,0.905,0.324,0.305,1.892,0.244
0.121,0.905,0.318,-0.061,0.977,0.732
0.119,0.893,0.328,1.038,1.221,0.732
0.119,0.903,0.316,0.427,0.916,0.549
0.115,0.889,0.334,2.197,0.366,0.427
0.121,0.89,0.323,0.549,1.77,0.977
0.116,0.901,0.325,0.549,0.854,0.305
0.12,0.897,0.325,0.977,0.244,0.122
0.128,0.895,0.324,0.977,1.099,0.916
0.114,0.894,0.327,0.244,0.305,0.549
0.113,0.89,0.321,0.549,0.671,0.305
0.126,0.903,0.318,0.916,0.549,-0.488
0.113,0.899,0.325,0.793,0.305,0.61
0.116,0.89,0.324,-0.305,0.977,0.366
0.116,0.893,0.334,-0.793,0.305,-0.305
0.118,0.906,0.321,-0.854,1.16,0.305
0.111,0.889,0.325,1.343,0.549,0.366
0.115,0.901,0.322,-0.732,0.671,0.305
0.12,0.892,0.323,0.488,1.099,0.366
0.123,0.894,0.329,-0.366,0.854,0.427
0.111,0.923,0.301,-1.831,1.404,0.61
0.114,0.883,0.33,1.343,0.427,-0.549
0.117,0.898,0.321,0.122,0.916,0.122
0.117,0.904,0.322,1.343,1.282,0.732
0.113,0.898,0.321,0.122,0.671,0.793
0.121,0.896,0.328,1.587,0.122,0.183
0.109,0.89,0.324,1.404,0.488,0.61
0.107,0.896,0.321,0.61,0.793,0.061
,,,,,
0.665,0.381,0.808,37.231,3.113,-1.099
-0.242,0.86,0.427,-18.921,-24.231,-4.639
0.102,0.805,0.307,24.963,1.709,4.822
0.126,0.927,0.386,-5.188,-0.549,-10.925
0.086,0.851,0.422,2.686,-6.287,8.301
0.131,0.898,0.379,1.221,0.916,-3.174
0.12,0.86,0.418,1.221,-2.136,1.16
0.101,0.85,0.41,2.319,-0.488,1.77
0.133,0.869,0.381,-0.549,1.587,-2.869
0.107,0.86,0.403,0.916,-0.671,0.549
0.107,0.864,0.397,1.221,1.16,-1.038
0.116,0.876,0.402,1.77,-0.183,-0.305
0.107,0.866,0.406,0.061,1.099,0.488
0.115,0.864,0.399,2.38,1.343,-0.427
0.112,0.864,0.406,1.526,0.366,0.366
0.112,0.854,0.41,0.977,0.305,-0.305
0.121,0.863,0.407,0.183,0.793,-0.61
0.117,0.872,0.403,0.244,0.854,-0.305
0.11,0.855,0.406,0.61,0.427,-0.061
0.116,0.867,0.395,1.038,0.549,-0.183
0.114,0.865,0.408,0.305,0.732,-0.122
0.116,0.863,0.399,0.61,1.038,0.549
0.115,0.862,0.397,0.549,0.671,-0.061
0.118,0.852,0.411,0.183,0.488,0.061
0.119,0.859,0.404,1.648,0.977,0.305
0.115,0.859,0.401,1.038,0.732,-0.122
0.116,0.862,0.41,0.977,0.305,0
0.117,0.874,0.407,1.038,0.366,0.244
0.116,0.869,0.403,-0.488,1.221,0.122
0.122,0.86,0.407,0.549,0.916,-1.099
0.116,0.859,0.405,0.549,1.343,0.305
0.117,0.868,0.402,-0.183,0.244,-0.366
0.117,0.866,0.415,0.671,0.549,0.183
0.121,0.87,0.405,0.122,1.099,-0.183
0.119,0.865,0.407,0.061,0.183,0.244
0.12,0.867,0.401,0.366,0.488,0
0.122,0.864,0.403,0.427,0.854,0
0.115,0.862,0.396,-0.61,0.854,0.61
0.111,0.852,0.403,0.793,0.366,-0.061
0.122,0.869,0.403,0.061,0.549,-0.549
0.118,0.868,0.407,0.549,1.099,0.61
0.117,0.864,0.399,0.854,0.977,0.366
0.12,0.872,0.404,-0.122,0.671,0.549
0.117,0.866,0.407,-0.244,0.793,0.732
0.122,0.871,0.396,0.183,0.916,0.427
0.121,0.857,0.401,1.465,0.854,0.244
0.12,0.859,0.4,0.61,1.282,-0.366
0.117,0.862,0.403,1.465,0.977,0.732
0.112,0.856,0.406,1.282,1.038,0.488
0.119,0.865,0.402,0.488,1.099,-0.061
0.122,0.865,0.407,0.244,1.099,0.122
0.118,0.865,0.405,-0.061,0.916,0.366
0.119,0.863,0.4,0.305,0.854,-0.244
0.121,0.864,0.399,-0.427,1.099,-0.183
0.117,0.856,0.404,1.16,0.916,0.244
0.116,0.857,0.404,1.282,1.038,0
0.118,0.865,0.41,0.61,0.916,-0.061
0.115,0.865,0.403,0.916,0.854,0.793
0.116,0.868,0.406,0.977,0.793,-0.183
0.118,0.865,0.406,0.122,0.366,0.793
0.116,0.864,0.407,0.549,0.488,0.671
0.122,0.866,0.398,0.183,0.916,0.122
0.119,0.864,0.408,-0.488,0.183,-0.61
0.119,0.867,0.404,0.488,0.488,-0.305
,,,,,
0.232,0.727,0.437,-42.053,-12.756,-1.648
-0.101,0.873,0.309,-28.381,-12.329,13.489
0.072,1.118,0.12,-22.705,3.296,5.676
0.052,0.786,0.406,21.301,-8.911,-0.488
0.087,0.878,0.385,8.362,-1.526,5.554
0.12,0.903,0.26,-6.287,4.089,0.488
0.104,0.872,0.311,9.155,3.418,-1.221
0.078,0.925,0.311,-9.033,4.333,-0.366
0.124,0.914,0.315,2.38,3.479,-1.648
0.096,0.929,0.337,-0.183,1.77,0.244
0.091,0.891,0.335,1.587,2.38,0.61
0.109,0.906,0.304,1.587,0.732,0.488
0.094,0.889,0.332,2.38,0.183,0.305
0.1,0.903,0.324,-0.549,0.488,0.61
0.112,0.908,0.324,-0.61,0.549,-0.244
0.104,0.899,0.312,1.953,0.671,-0.305
0.1,0.896,0.32,1.404,1.099,-0.671
0.107,0.918,0.315,-2.258,1.343,-0.854
0.098,0.903,0.322,0.732,0.854,0
0.103,0.91,0.322,0.732,0.488,0
0.109,0.905,0.322,-0.183,1.038,0.549
0.099,0.9,0.327,0.61,0.183,0.854
0.106,0.903,0.315,-2.625,-0.183,-0.366
0.108,0.911,0.308,-2.258,0.427,-0.61
0.1,0.903,0.325,1.282,0.977,-0.427
0.104,0.899,0.32,2.686,2.014,-0.427
0.106,0.897,0.315,0.183,0.549,-0.244
0.103,0.91,0.319,-1.465,0.916,-0.549
0.111,0.905,0.319,0.427,0.854,-1.038
0.106,0.886,0.328,-0.244,1.038,-0.549
0.109,0.909,0.318,0.854,0.427,0.183
0.103,0.883,0.323,1.465,0.244,-0.061
0.105,0.902,0.306,-0.61,1.343,-1.343
0.11,0.885,0.323,1.404,0.122,-1.892
0.114,0.897,0.318,-0.122,1.221,-2.136
0.113,0.906,0.311,-0.305,2.197,-1.343
0.111,0.904,0.319,0.183,1.038,-1.038
0.114,0.906,0.32,-0.488,1.404,-0.244
0.112,0.912,0.317,-1.221,0.854,0.488
0.113,0.91,0.324,0.427,0.366,1.16
0.111,0.901,0.322,0.916,0.427,1.526
0.117,0.906,0.31,-0.732,1.099,1.526
0.104,0.888,0.313,0.488,0.122,0.61
0.118,0.901,0.313,1.465,0.916,-0.183
0.111,0.897,0.309,0.854,0.671,0.61
0.109,0.903,0.313,1.16,1.404,0.671
0.115,0.896,0.329,2.441,0.366,0.488
0.114,0.906,0.322,-1.404,1.16,0.244
0.109,0.897,0.323,2.075,1.16,0.793
0.103,0.907,0.313,0.549,0.732,0.854
0.114,0.899,0.325,-0.183,0.977,0.244
0.104,0.902,0.319,1.587,0.244,0.977
0.109,0.902,0.304,0.854,1.099,1.404
0.118,0.901,0.326,2.075,0.244,0.183
0.107,0.907,0.319,-0.183,0.916,0.366
0.111,0.905,0.312,-0.244,1.526,0.488
0.102,0.901,0.326,0.732,0.244,0.122
0.107,0.905,0.316,-0.244,1.16,0.366
0.11,0.896,0.327,0.671,0.549,0.732
0.106,0.898,0.319,0.366,0.61,0.61
0.113,0.9,0.326,0.793,0.793,0.61
0.108,0.89,0.317,1.038,-0.122,0.427
0.112,0.897,0.317,-15.442,0.977,-0.488
0.109,0.903,0.317,-0.488,1.282,-0.793
,,,,,
0.484,0.403,0.836,40.649,2.869,-7.385
-0.004,1.073,0.326,-7.263,-2.686,-7.019
0.084,0.779,0.338,26.306,1.648,3.845
0.113,0.941,0.401,-6.714,-1.526,-5.859
0.107,0.846,0.412,6.531,-2.991,8.667
0.141,0.862,0.405,1.648,-2.991,-1.831
0.115,0.865,0.396,1.16,-2.93,3.296
0.116,0.846,0.409,0.427,-0.488,-0.244
0.121,0.875,0.391,-1.16,-1.587,-0.977
0.101,0.849,0.402,0.183,-1.343,-0.061
0.108,0.85,0.4,1.709,-0.732,-1.038
0.116,0.875,0.391,-0.305,-0.916,-0.488
0.108,0.864,0.399,1.526,1.404,0.427
0.109,0.864,0.403,0.854,0,-0.61
0.117,0.869,0.396,0.122,1.038,-0.305
0.114,0.879,0.395,-0.793,0.61,-0.366
0.112,0.876,0.396,0.549,0.916,-0.061
0.113,0.868,0.4,0.427,1.221,-0.488
0.113,0.868,0.4,1.587,0.427,0.549
0.111,0.862,0.399,0.305,0.61,0.488
0.114,0.866,0.398,0.427,0.549,0.366
0.113,0.864,0.396,0.183,0.61,0.549
0.117,0.872,0.398,2.014,0.732,-0.244
0.114,0.867,0.401,0.549,0.977,0.183
0.116,0.865,0.402,0.488,0.732,0.183
0.111,0.865,0.402,0.183,0.793,0.61
0.115,0.869,0.406,0.549,0.732,-0.061
0.113,0.862,0.398,1.465,0.488,0.732
0.111,0.869,0.408,1.099,0.854,0.122
0.12,0.866,0.4,-0.061,0.549,0.427
0.117,0.866,0.397,1.038,0.793,0.122
0.108,0.866,0.395,0.549,0.61,0.488
0.106,0.863,0.402,0.549,-0.305,0.183
0.115,0.865,0.4,0.427,0.977,0.244
0.111,0.871,0.4,0.488,0.977,0
0.109,0.869,0.398,0.488,0.916,0
0.115,0.868,0.404,1.038,0.549,0.366
0.108,0.871,0.401,0.183,1.038,1.038
0.115,0.875,0.397,0.916,0.549,0.244
0.113,0.867,0.401,-0.488,0.122,0.183
0.113,0.86,0.402,0.488,1.282,0.244
0.11,0.858,0.398,2.38,1.038,0.671
0.109,0.868,0.404,0.244,0.061,-0.488
0.12,0.885,0.398,-0.244,0.977,0.244
0.113,0.872,0.399,0,0.854,-0.061
0.114,0.875,0.406,-0.427,1.16,-0.122
0.109,0.872,0.395,0.122,0.977,1.099
0.111,0.87,0.403,0.183,0.732,-0.183
0.119,0.867,0.405,0.671,0.671,1.099
0.115,0.861,0.394,-0.061,0.427,0.61
0.112,0.853,0.4,-15.32,0.61,-0.305
0.114,0.869,0.405,0.061,0.244,-0.366
0.114,0.871,0.397,0.732,1.099,-0.122
0.109,0.867,0.4,0.244,0.916,0.122
0.107,0.871,0.405,0.366,0.366,0.488
0.109,0.865,0.4,0.671,0.916,0.427
0.113,0.87,0.398,1.221,1.038,0.793
0.11,0.86,0.4,0.916,0.732,0
0.117,0.87,0.399,1.953,2.075,-0.244
0.107,0.86,0.4,1.221,1.282,0.732
0.109,0.86,0.404,1.221,0.854,0.671
0.115,0.863,0.404,-0.244,1.221,0.793
0.113,0.871,0.401,0,0.977,-0.366
0.11,0.863,0.399,0.122,0.916,0.732
,,,,,
0.113,1.031,0.369,-8.789,2.563,2.869
0.279,0.56,0.575,-52.612,-1.892,0.183
-0.108,0.785,0.398,-48.889,-19.958,9.949
-0.044,0.96,0.279,-2.258,0.61,19.287
0.25,0.89,0.336,18.677,4.639,4.15
0.038,0.844,0.412,7.324,-4.944,5.737
0.099,0.914,0.319,5.798,1.709,4.517
0.118,0.876,0.333,9.766,4.15,-3.174
0.077,0.908,0.292,-9.705,-1.648,-2.991
0.109,0.913,0.319,-0.549,1.16,-5.615
0.065,0.92,0.313,-6.836,-2.136,-2.136
0.074,0.887,0.285,1.16,0.061,-0.671
0.074,0.916,0.295,-1.343,0.732,-0.854
0.079,0.916,0.289,2.075,1.648,0.977
0.096,0.895,0.327,0.244,1.526,-0.61
0.083,0.919,0.316,-1.16,0.244,-0.244
0.09,0.906,0.3,-0.427,1.831,-0.061
0.082,0.911,0.312,-2.197,-0.488,-1.282
0.081,0.942,0.287,-0.183,1.221,-0.427
0.09,0.888,0.315,2.075,0.732,-1.038
0.085,0.901,0.294,1.526,1.404,-0.061
0.091,0.903,0.301,1.465,1.709,-0.061
0.088,0.901,0.32,2.136,0.793,-0.488
0.089,0.918,0.305,0.061,1.465,-0.366
0.091,0.895,0.314,0.427,0.427,-1.038
0.09,0.915,0.304,-0.305,0.671,-0.549
0.092,0.911,0.307,0.244,0.122,-0.793
0.094,0.906,0.308,-0.793,0.854,-0.244
0.095,0.902,0.306,-0.122,0.305,-0.244
0.089,0.912,0.309,-0.244,0.427,-0.305
0.092,0.907,0.302,1.587,0.488,0.305
0.092,0.911,0.311,0.305,0.854,0.427
0.097,0.91,0.312,0.183,0.305,0.305
0.088,0.919,0.302,0.427,0.916,0.916
0.094,0.901,0.302,0.366,0.488,0.183
0.095,0.915,0.303,-0.122,0.977,-0.488
0.089,0.909,0.301,0.61,0.793,0.244
0.102,0.898,0.304,1.831,0,0.183
0.092,0.925,0.298,-2.93,0.671,-0.244
0.087,0.89,0.315,2.258,0.305,0.122
0.094,0.903,0.307,-1.038,1.282,-1.038
0.096,0.918,0.301,-0.427,1.099,-0.366
0.088,0.916,0.306,0.977,0.244,0.61
0.091,0.911,0.307,0.793,1.038,0.061
0.087,0.907,0.304,1.526,0.122,1.221
0.088,0.915,0.288,1.282,0.793,1.099
0.09,0.897,0.303,1.648,0.549,-0.671
0.093,0.915,0.301,2.625,1.709,-0.244
0.094,0.905,0.31,-0.122,1.16,-0.122
0.094,0.902,0.316,0.916,0.549,-0.183
0.096,0.912,0.305,0.977,1.16,-0.183
0.091,0.912,0.307,-0.305,0.549,0.061
0.094,0.908,0.304,1.587,1.099,0.366
0.099,0.907,0.304,1.404,0.977,-0.061
0.091,0.903,0.313,0.916,0.61,0.854
0.094,0.904,0.305,0.916,1.221,0.061
0.099,0.913,0.31,0,1.099,-0.549
0.092,0.906,0.313,0.183,0.488,0.793
0.094,0.901,0.304,-0.427,1.099,0.244
0.098,0.909,0.309,-0.977,0.854,-0.488
0.093,0.906,0.306,-0.305,0.488,0.854
0.093,0.908,0.298,-0.183,0.732,0.61
0.101,0.904,0.317,0.793,0.244,0
0.097,0.919,0.305,-0.671,0.793,0.305
,,,,,
0.464,0.523,0.703,28.137,-15.686,-21.851
0.059,1.101,0.343,-2.441,1.465,2.441
0.068,0.78,0.338,21.118,-2.258,-0.122
0.075,0.968,0.423,-7.08,-2.502,-4.578
0.11,0.849,0.413,-0.366,-4.333,3.296
0.123,0.871,0.382,2.136,-3.845,1.099
0.114,0.874,0.373,4.822,-0.427,1.953
0.105,0.839,0.395,1.099,1.526,-0.122
0.108,0.863,0.388,0.427,0.61,-2.014
0.104,0.861,0.4,-1.343,1.221,-1.526
0.108,0.871,0.395,0.732,1.16,-1.404
0.109,0.884,0.382,1.038,1.099,-0.671
0.106,0.876,0.386,1.038,0.977,0.488
0.111,0.864,0.392,1.221,1.16,0.061
0.111,0.872,0.385,0.732,1.526,0.732
0.108,0.865,0.394,0.671,0.488,0.427
0.112,0.868,0.399,1.404,0.488,0.305
0.112,0.872,0.396,1.953,0.916,0.549
0.11,0.866,0.402,1.282,1.16,0.122
0.116,0.863,0.399,0.366,0.244,-0.305
0.118,0.883,0.393,-0.549,0.244,-0.183
0.111,0.876,0.394,-0.122,1.038,1.038
0.103,0.864,0.395,1.465,0.366,0.183
0.108,0.876,0.402,0.305,0.488,-0.183
0.11,0.86,0.399,2.319,0.732,0.427
0.113,0.879,0.393,1.221,0.977,0.61
0.11,0.874,0.394,0.244,0.916,1.099
0.105,0.858,0.403,0.793,0.305,-0.366
0.115,0.87,0.402,0.61,1.221,-0.244
0.109,0.876,0.395,-0.061,0.732,-0.427
0.109,0.879,0.398,0.122,0.549,0.061
0.111,0.878,0.389,0.244,0.793,0.244
0.109,0.869,0.39,0.793,0.244,0.732
0.11,0.871,0.394,-1.099,0.366,0.366
0.111,0.873,0.395,0.305,0.793,0.549
0.109,0.874,0.395,0.183,0.671,0.061
0.109,0.87,0.396,-0.488,0.916,0.244
0.11,0.866,0.392,0.916,0.427,-0.183
0.112,0.875,0.396,0.366,1.038,0.427
0.104,0.865,0.404,-0.305,0.549,0.366
0.112,0.865,0.398,1.099,0.732,0.183
0.116,0.876,0.388,0.244,0.732,0.366
0.115,0.873,0.392,0.122,1.16,-0.183
0.104,0.875,0.394,0.549,0.793,0.793
0.102,0.865,0.39,0.488,0.61,0.671
0.112,0.86,0.399,0.366,0.793,0.366
0.114,0.865,0.393,0.916,1.038,0.488
0.109,0.863,0.393,0.305,0.916,-0.305
0.106,0.87,0.392,1.099,0.854,0.244
0.109,0.877,0.392,0.488,0.854,-0.122
0.106,0.866,0.395,-14.954,1.221,0.793
0.108,0.86,0.392,0.61,1.038,0.183
0.113,0.872,0.384,-0.61,0.427,0.122
0.107,0.864,0.396,0.488,0.671,0.549
0.108,0.858,0.389,1.831,1.099,-0.305
0.107,0.868,0.395,0.61,1.16,-0.244
0.107,0.874,0.395,0.61,0.793,0.244
0.117,0.879,0.393,0.366,0.977,0.61
0.105,0.869,0.399,0.488,0.793,0.977
0.116,0.873,0.397,0.977,1.038,0.122
0.116,0.871,0.387,-0.183,0.977,0.122
0.111,0.866,0.395,0.854,0.916,-0.366
0.11,0.866,0.39,1.099,1.099,0.244
0.109,0.866,0.398,0.244,0.977,0.244
,,,,,
0.083,1.104,0.39,6.165,11.047,1.343
0.252,0.596,0.5,-68.115,9.644,-3.357
-0.051,0.805,0.526,-71.167,-39.917,-10.437
-0.281,1.722,-0.454,-79.895,29.236,7.69
-0.077,0.439,0.505,77.026,-29.419,-13.916
-0.016,0.89,0.342,-25.94,6.104,2.319
0.164,0.85,0.295,26.733,-2.808,-2.808
0.121,0.952,0.287,-4.272,2.441,-0.366
0.051,0.874,0.314,6.348,0.732,0.061
0.094,0.896,0.306,-4.211,1.648,-3.052
0.063,0.919,0.324,1.587,1.709,0
0.063,0.907,0.309,-0.122,1.526,-0.854
0.083,0.909,0.312,-0.549,1.709,-0.977
0.084,0.898,0.336,1.16,0.244,-0.488
0.083,0.896,0.308,0.854,1.038,-0.305
0.08,0.88,0.306,0.793,1.221,-0.671
0.075,0.903,0.328,2.136,-0.366,-1.648
0.084,0.925,0.295,-3.479,1.099,-0.427
0.072,0.897,0.317,0.305,1.221,-0.61
0.075,0.905,0.335,1.526,0.61,-0.854
0.085,0.922,0.314,-1.587,2.197,-0.305
0.079,0.897,0.321,2.136,0.122,0
0.079,0.892,0.322,2.014,0.854,0.549
0.082,0.927,0.3,-2.319,0.977,-0.427
0.081,0.895,0.315,1.526,-0.061,0.671
0.087,0.897,0.316,1.282,1.221,0.549
0.085,0.907,0.31,-0.244,1.099,-0.488
0.079,0.905,0.319,2.502,0.916,0.305
0.083,0.899,0.316,3.113,1.343,0
0.087,0.897,0.321,-1.282,1.221,0.061
0.079,0.91,0.308,0.793,0.793,0.183
0.083,0.921,0.295,0.305,0.916,0
0.086,0.897,0.314,1.099,0.488,1.16
0.08,0.917,0.302,-0.305,0.305,-0.061
0.086,0.903,0.31,1.221,1.099,-0.244
0.076,0.906,0.314,1.709,1.038,0.366
0.086,0.901,0.315,0.549,0.732,-0.305
0.087,0.907,0.317,1.465,0.549,0.427
0.08,0.907,0.317,0.549,0.793,0.549
0.08,0.903,0.313,0.183,0.916,0.061
0.083,0.897,0.316,1.831,0.916,-0.122
0.087,0.9,0.32,1.465,1.16,-0.671
0.087,0.906,0.313,1.343,0.671,0.122
0.088,0.9,0.312,0,0.977,-0.305
0.087,0.897,0.316,1.404,0.671,-0.488
0.09,0.911,0.32,0.366,1.404,-0.916
0.091,0.909,0.315,0.977,0.671,-0.61
0.087,0.909,0.314,-0.977,0.61,0.488
0.081,0.896,0.322,1.77,0.671,0.488
0.09,0.906,0.312,0.061,0.61,-0.244
0.083,0.911,0.313,0.061,0.305,-0.122
0.082,0.898,0.31,0.549,0.427,-0.244
0.08,0.917,0.305,0.427,0.366,0
0.086,0.895,0.32,-0.244,0.61,-0.549
0.091,0.915,0.314,-0.061,1.099,0.183
0.088,0.911,0.312,1.16,0.916,0.61
0.082,0.905,0.312,0.183,1.221,0.244
0.088,0.909,0.322,1.465,0.854,0.305
0.093,0.912,0.311,-0.488,1.099,0.122
0.086,0.906,0.313,0.244,1.038,0.244
0.087,0.91,0.319,0.427,0.549,0.366
0.086,0.911,0.315,-0.549,0.854,0.488
0.091,0.91,0.312,-0.61,0.916,-0.061
0.082,0.897,0.323,1.709,0.305,1.221
,,,,,
0.738,0.125,0.884,33.569,9.338,0.793
-0.057,0.983,0.481,-8.484,-16.418,-16.235
0.107,0.826,0.305,28.687,2.319,10.925
0.105,0.884,0.397,-0.061,0.183,-9.888
0.075,0.858,0.435,2.991,-5.737,6.348
0.118,0.859,0.399,3.113,-0.61,-14.832
0.104,0.852,0.415,2.991,-3.967,2.014
0.084,0.85,0.404,2.319,-1.343,-0.061
0.106,0.842,0.396,-0.305,0.732,-2.502
0.089,0.879,0.416,-0.732,-0.549,-0.183
0.094,0.871,0.406,0.916,1.099,-0.427
0.1,0.871,0.413,-0.732,0.183,-0.488
0.089,0.858,0.404,1.282,0.122,0.793
0.094,0.867,0.407,-0.244,0.366,-0.366
0.1,0.867,0.407,-0.793,0.305,0.122
0.099,0.869,0.401,-0.061,0,0.488
0.093,0.864,0.403,-0.061,0.183,0.244
0.09,0.877,0.402,-1.221,0.488,-0.122
0.093,0.869,0.407,0.854,0.854,0
0.094,0.866,0.399,0.305,0.854,0
0.092,0.867,0.408,0.244,0.549,0.427
0.099,0.868,0.398,0.488,1.038,0
0.094,0.869,0.412,-0.366,0.61,0.305
0.093,0.858,0.399,0.977,0.732,-0.183
0.089,0.856,0.4,1.16,1.099,-0.549
0.095,0.866,0.405,0.488,1.099,-0.305
0.093,0.865,0.41,0.854,0.488,0.061
0.099,0.874,0.404,0,0.854,0.244
0.1,0.866,0.4,-0.122,0.854,0.122
0.099,0.869,0.397,0.366,0.427,0.427
0.092,0.862,0.406,-0.366,0.854,0.061
0.094,0.859,0.406,0.671,0.854,0.549
0.098,0.872,0.394,0.061,0.732,0.366
0.091,0.866,0.41,-0.427,0.366,0.305
0.092,0.863,0.419,-0.061,1.16,0.305
0.096,0.879,0.393,0.427,0.244,0.305
0.09,0.863,0.401,1.282,0.671,0.305
0.094,0.877,0.407,-1.099,0.732,0.122
0.098,0.875,0.395,0.244,0.732,0.549
0.097,0.865,0.413,0.671,1.038,0.061
0.091,0.857,0.4,1.648,0.793,-0.183
0.092,0.869,0.403,0.183,0.854,-0.183
0.095,0.874,0.403,0.427,0.732,0.305
0.095,0.868,0.404,0.488,0.854,-0.427
0.098,0.873,0.396,-0.427,1.038,-0.427
0.098,0.869,0.4,0.122,0.793,0.061
0.1,0.865,0.407,0.122,1.16,-0.305
0.095,0.877,0.402,-1.038,1.038,0.061
0.094,0.861,0.396,-0.061,0.549,0.549
0.102,0.868,0.399,-0.305,0.671,-0.366
0.102,0.887,0.402,-0.916,0.854,-0.183
0.098,0.876,0.403,-0.183,1.038,1.16
0.094,0.862,0.399,0,0.793,0
0.091,0.862,0.405,0.488,0.183,1.16
0.094,0.86,0.396,1.404,0.977,0.671
0.097,0.869,0.396,1.16,0.854,0.122
0.097,0.869,0.4,0.488,1.16,-0.061
0.093,0.868,0.397,0.854,1.038,0.488
0.095,0.866,0.405,1.16,1.038,0.61
0.1,0.87,0.4,0.671,0.61,0.549
0.093,0.867,0.4,0.854,0.671,0.488
0.091,0.866,0.404,0.244,0.671,0.305
0.097,0.873,0.391,0.793,0.793,0.671
0.094,0.86,0.399,0.671,0.977,0.305
,,,,,
0.111,1.151,0.465,1.587,14.465,7.385
0.304,0.249,0.629,-33.875,1.099,0.183
0.193,0.768,0.481,-129.517,-41.626,2.869
-0.162,1.108,0.086,-46.936,-24.963,13.489
0.334,0.62,0.393,71.96,-7.08,8.118
0.196,0.733,0.294,19.043,6.409,3.174
0.22,0.953,0.285,28.198,9.705,1.282
0.126,0.895,0.288,8.179,8.789,3.967
0.1,0.909,0.302,1.953,5.249,3.906
0.122,0.874,0.361,12.512,3.418,2.441
0.118,0.929,0.349,-3.662,5.737,1.892
0.127,0.889,0.346,3.784,3.845,0
0.133,0.912,0.325,-1.404,1.526,0.732
0.12,0.899,0.347,1.221,2.014,1.038
0.133,0.877,0.325,1.587,0.854,1.221
0.123,0.893,0.317,-0.427,0.671,1.892
0.151,0.88,0.301,0.549,0.916,2.991
0.13,0.89,0.313,-0.61,-0.061,2.686
0.116,0.897,0.311,-2.441,0,1.953
0.103,0.887,0.336,0.061,0.549,1.221
0.117,0.906,0.343,1.343,0.61,2.075
0.11,0.898,0.336,1.099,1.038,2.38
0.117,0.892,0.337,2.319,0.244,1.465
0.119,0.899,0.341,1.77,0,1.282
0.121,0.895,0.32,0,0.793,0.183
0.111,0.881,0.337,0.854,-0.183,-1.526
0.101,0.891,0.349,1.282,-0.793,-1.465
0.104,0.895,0.348,0.305,-0.61,-0.916
0.106,0.891,0.336,3.54,-0.793,-0.061
0.109,0.917,0.325,2.258,-1.465,0.366
0.106,0.892,0.33,3.479,-0.427,1.526
0.127,0.883,0.329,2.686,0.977,2.075
0.105,0.887,0.346,2.869,-0.549,1.953
0.097,0.881,0.341,3.113,1.099,1.038
0.099,0.879,0.331,1.892,1.221,0.549
0.101,0.889,0.334,-1.16,1.038,1.099
0.118,0.889,0.352,0.671,2.075,-0.122
0.119,0.892,0.352,2.502,2.38,-1.099
0.111,0.882,0.335,-0.61,3.113,-0.427
0.09,0.882,0.335,2.075,1.526,0.916
0.099,0.897,0.323,0.793,3.662,0.427
0.113,0.888,0.325,0.732,3.54,2.075
0.112,0.91,0.351,1.77,2.014,0.549
0.1,0.893,0.37,0.916,3.357,1.038
0.107,0.88,0.361,0,2.991,0.366
0.112,0.877,0.358,-0.916,0.977,-0.793
0.127,0.881,0.353,-0.183,-1.099,-0.061
0.127,0.884,0.352,-0.427,-0.671,-0.122
0.12,0.895,0.351,0.732,0.122,-0.366
0.103,0.903,0.351,-0.793,0.183,-0.977
0.107,0.89,0.343,0.427,-0.305,-0.427
0.105,0.889,0.35,1.099,-0.854,0.427
0.11,0.897,0.347,-0.122,-0.549,0
0.107,0.888,0.346,0.366,-0.244,0.854
0.102,0.886,0.341,-1.343,-0.61,-0.61
0.108,0.898,0.339,1.16,-0.549,-0.427
0.1,0.889,0.335,0.061,0.549,0.366
0.109,0.89,0.332,-0.916,0.916,-0.427
0.107,0.905,0.341,0.122,0.427,-0.122
0.105,0.899,0.343,0.61,1.16,0.977
0.11,0.891,0.349,1.221,0.244,0.549
0.108,0.899,0.348,-0.061,0.366,1.038
0.113,0.882,0.351,2.258,0.488,0.305
0.106,0.895,0.34,1.221,0.61,0.61
,,,,,
0.285,0.625,0.705,-2.441,-19.531,-0.732
0.028,1.014,0.488,10.315,-10.681,2.319
0.124,0.784,0.382,11.536,5.676,2.197
0.099,0.845,0.42,3.845,-6.775,-5.676
0.083,0.852,0.482,2.808,-4.578,1.648
0.111,0.852,0.435,-1.221,-0.977,-1.77
0.101,0.825,0.447,1.221,-1.587,3.052
0.099,0.845,0.425,2.075,0.977,0.122
0.112,0.849,0.428,1.16,0.977,0.732
0.104,0.821,0.46,-0.854,0.183,-1.404
0.105,0.846,0.435,1.16,0.732,-0.305
0.11,0.838,0.437,-2.136,1.282,-1.77
0.106,0.861,0.439,-0.244,0.793,-0.916
0.102,0.847,0.437,0.732,0.427,-0.244
0.101,0.843,0.436,0.061,0.793,-1.404
0.102,0.848,0.433,1.526,0.61,-1.16
0.108,0.85,0.434,0.977,2.075,-1.282
0.108,0.853,0.44,-0.122,0.366,-1.099
0.104,0.841,0.438,1.282,0.854,0.122
0.107,0.849,0.431,0.305,0.549,-0.122
0.107,0.851,0.436,1.16,0.854,-0.244
0.109,0.858,0.432,0.732,1.099,0.183
0.109,0.838,0.44,0.427,0.427,0.732
0.116,0.849,0.436,0.61,1.343,0.427
0.115,0.848,0.432,0.61,0.916,0.061
0.107,0.847,0.436,-0.183,0.977,0.122
0.109,0.845,0.436,0.366,0.244,-0.732
0.112,0.845,0.44,0.671,0.61,-0.122
0.111,0.845,0.437,0,0.183,-0.061
0.118,0.849,0.431,-0.488,0.244,-0.366
0.115,0.856,0.433,-0.61,0.244,-0.061
0.115,0.843,0.44,-0.549,-0.305,-0.549
0.108,0.848,0.435,-0.488,0.183,-0.122
0.107,0.844,0.436,0.244,-0.244,0.183
0.109,0.853,0.433,0.916,-0.366,0.183
0.102,0.855,0.426,-0.183,0.122,0.122
0.105,0.852,0.429,0.305,1.038,-0.549
0.112,0.852,0.433,0.671,0.916,-0.061
0.111,0.852,0.436,0.366,0.854,-0.244
0.119,0.848,0.439,-0.183,1.099,0.183
0.111,0.857,0.438,0.183,0.61,0
0.107,0.841,0.435,0.061,-0.061,0.488
0.107,0.85,0.438,0,0.671,-0.244
0.118,0.866,0.434,-1.343,0.488,-0.916
0.115,0.844,0.423,0.305,0.671,0.977
0.109,0.854,0.432,-0.977,0.488,-0.427
0.113,0.847,0.433,1.16,0.244,-0.305
0.108,0.841,0.433,0.488,0.488,-0.305
0.107,0.846,0.436,0.305,0.671,-0.061
0.108,0.849,0.437,-0.244,0.549,-0.427
0.119,0.852,0.428,-0.244,0.427,-0.183
0.116,0.848,0.43,0.549,0.427,-0.488
0.112,0.85,0.431,0.732,1.343,-0.427
0.112,0.845,0.426,1.038,0.427,-0.244
0.106,0.848,0.432,1.038,0.549,0.122
0.115,0.859,0.466,0.793,0.61,-0.427
0.111,0.856,0.429,-0.122,0.671,0.183
0.11,0.852,0.426,0.366,0.732,0.122
0.115,0.853,0.434,-0.305,0.549,-0.305
0.112,0.848,0.43,0.122,0.977,-0.183
0.11,0.848,0.427,0.183,0.427,0
0.109,0.853,0.435,-0.122,0.244,-0.427
0.111,0.852,0.427,0.61,0.854,0.183
0.108,0.851,0.429,0.427,0.61,0.183
,,,,,
0.237,0.753,0.495,-15.076,-10.498,-5.127
-0.118,0.859,0.535,-51.086,-17.761,2.869
0.099,1.012,0.226,14.465,-2.38,5.005
0.109,0.8,0.376,-0.061,-10.803,-2.502
0.096,0.995,0.29,-12.329,2.197,1.892
0.107,0.814,0.352,5.737,-3.601,1.16
0.096,0.917,0.307,-3.967,1.709,1.709
0.11,0.851,0.364,8.24,1.16,0.122
0.102,0.899,0.315,-3.662,3.357,2.014
0.123,0.88,0.344,3.357,2.441,0.549
0.101,0.902,0.355,0.916,1.77,1.038
0.106,0.894,0.327,1.16,2.014,0.793
0.122,0.894,0.351,-0.305,1.526,0.366
0.1,0.897,0.343,1.099,0.732,1.648
0.105,0.891,0.333,1.465,1.16,0.977
0.114,0.891,0.355,1.526,0.549,0.61
0.102,0.905,0.335,-0.732,1.221,0.549
0.111,0.892,0.343,0.244,0.793,-0.549
0.096,0.891,0.341,-0.244,0.183,0.183
0.105,0.896,0.342,0.305,1.465,0.183
0.097,0.884,0.346,2.197,-0.305,-0.122
0.1,0.901,0.332,0.916,1.16,-0.732
0.107,0.891,0.335,1.16,0.916,-0.122
0.104,0.893,0.345,0.305,0.488,-0.61
0.116,0.892,0.34,-1.648,1.221,-0.366
0.105,0.896,0.352,0.427,0.427,-0.854
0.104,0.876,0.352,2.197,0.732,-0.305
0.118,0.916,0.318,-2.197,0.793,-0.488
0.106,0.886,0.353,0.854,-0.671,-1.099
0.111,0.902,0.325,-2.502,1.038,-0.122
0.11,0.888,0.334,-0.916,0.427,0.732
0.102,0.876,0.35,1.77,0.244,1.221
0.111,0.914,0.328,1.099,1.709,0.854
0.104,0.891,0.341,-0.305,0.122,0
0.106,0.884,0.356,1.465,0,0.061
0.115,0.88,0.337,2.197,1.648,0.183
0.113,0.894,0.345,-0.061,0.366,-0.732
0.109,0.89,0.343,1.953,0.977,-0.793
0.104,0.89,0.341,-0.366,1.099,-0.366
0.101,0.9,0.338,-0.671,0.916,0.427
0.108,0.891,0.352,1.587,0.549,-0.244
0.109,0.891,0.347,0.183,0.61,0.122
0.104,0.896,0.337,-0.427,0.549,0.549
0.108,0.9,0.337,0.793,0.305,-0.183
0.108,0.883,0.346,0.977,0.427,0.366
0.11,0.879,0.339,0.977,0.977,0.183
0.107,0.891,0.341,0.061,-0.122,-0.61
0.109,0.885,0.347,0.488,1.282,0.183
0.108,0.892,0.346,0.854,0.183,-0.244
0.108,0.893,0.35,-0.549,0.61,-0.122
0.112,0.891,0.343,0.549,0.549,0.122
0.107,0.889,0.341,-0.305,0.427,-0.122
0.116,0.895,0.346,0.793,0.854,-0.549
0.106,0.888,0.337,0.244,0.793,0.305
0.114,0.885,0.34,0.305,0.977,0.183
0.111,0.88,0.353,0.244,0.488,0.244
0.109,0.886,0.346,1.648,0.61,0.122
0.112,0.879,0.342,0.793,0.61,0.122
0.109,0.887,0.348,0.061,0,0.122
0.108,0.895,0.331,0.305,0.854,0.427
0.111,0.892,0.337,0.854,0.61,0.305
0.108,0.886,0.342,0,0.061,0.488
0.112,0.896,0.336,-0.549,0.793,-0.061
0.113,0.885,0.341,0.549,0.793,-0.366
,,,,,
0.672,-0.101,1.028,28.137,-7.812,9.338
-0.105,0.997,0.447,-19.897,-18.188,-12.024
0.102,0.661,0.333,39.49,7.629,17.09
0.102,1.012,0.415,5.432,-6.409,-10.864
0.069,0.89,0.475,3.418,-2.747,12.024
0.12,0.88,0.418,5.31,-0.671,-2.014
0.12,0.834,0.416,3.174,-2.93,3.845
0.095,0.833,0.435,0.549,-0.427,0.244
0.117,0.858,0.404,-0.366,-0.427,-1.16
0.092,0.861,0.422,-0.793,-0.732,-0.793
0.096,0.861,0.417,0.854,0.671,-0.977
0.104,0.869,0.413,-1.16,0.305,-0.366
0.092,0.87,0.426,-0.305,-0.244,0.183
0.111,0.856,0.425,-0.061,0.671,-1.16
0.1,0.852,0.419,0.183,-0.122,1.221
0.102,0.847,0.422,0.977,0.244,0.549
0.115,0.86,0.427,0.549,-0.427,-1.648
0.104,0.862,0.425,-0.549,-0.122,-0.122
0.105,0.852,0.423,0,0.366,-0.183
0.096,0.851,0.425,0.122,-0.488,0.305
0.103,0.846,0.419,0.488,0.366,-0.244
0.104,0.856,0.419,0.61,0.366,-0.488
0.096,0.856,0.416,1.465,0.427,-0.549
0.104,0.862,0.424,-0.122,0.366,-0.183
0.103,0.861,0.419,-0.244,0.305,0.244
0.106,0.854,0.427,0.366,0.732,-0.61
0.106,0.863,0.421,0.305,0.61,0.183
0.092,0.858,0.416,1.16,0.916,0.671
0.105,0.854,0.413,-1.16,0.671,-0.854
0.103,0.859,0.42,0.793,0.732,0.183
0.102,0.854,0.416,-0.122,0.488,0.366
0.101,0.864,0.426,0,0.61,-0.488
0.105,0.865,0.422,0.183,0.61,-0.366
0.108,0.858,0.418,0,0.793,0.305
0.101,0.853,0.417,0.244,0.671,0.061
0.104,0.85,0.424,0.488,0.366,-0.183
0.104,0.851,0.414,0.977,0.671,0.122
0.109,0.87,0.418,0.488,0.732,-0.244
0.104,0.859,0.415,1.16,0.916,-0.061
0.105,0.858,0.415,0.244,1.16,0.183
0.101,0.857,0.429,0,0.732,0
0.109,0.869,0.424,0.61,0.916,-0.244
0.107,0.862,0.427,0.183,0.793,0.366
0.103,0.857,0.414,0.122,0.793,0.183
0.108,0.859,0.419,0.366,0.366,-0.366
0.104,0.854,0.417,-0.122,0.549,-0.122
0.107,0.852,0.415,1.831,0.366,-0.183
0.101,0.858,0.417,0.183,0.183,-0.122
0.101,0.856,0.418,0.488,0.61,0
0.101,0.859,0.414,1.526,0.854,-0.366
0.105,0.861,0.417,0.122,1.038,0.122
0.105,0.862,0.414,15.503,0.793,0.732
0.105,0.856,0.415,0.305,0.977,-0.122
0.108,0.861,0.423,0.427,0.916,-0.183
0.106,0.854,0.417,0.977,0.977,0.366
0.109,0.851,0.415,0.61,0.977,-0.61
0.105,0.856,0.422,0.122,0.061,0.244
0.107,0.849,0.416,1.587,0.671,0.671
0.111,0.851,0.423,0.854,0.427,-0.122
0.105,0.854,0.416,0.732,0.854,0.061
0.106,0.859,0.414,0.366,0.732,-0.244
0.111,0.867,0.422,0.061,1.038,0.061
0.106,0.86,0.419,0.977,0.916,0.61
0.102,0.854,0.419,0.183,0.061,0.366
,,,,,
0.056,1.224,0.239,-1.587,19.226,3.906
0.229,0.379,0.772,-9.033,12.024,-0.122
0.015,0.935,0.415,-68.176,-14.404,-3.967
-0.016,0.938,0.129,-47.546,-18.005,0.732
0.271,0.953,0.254,22.644,-0.366,11.475
0.105,0.88,0.333,-0.854,-6.897,10.315
0.094,0.939,0.221,-1.77,2.136,4.089
0.125,0.865,0.329,7.568,1.465,-0.366
0.059,0.879,0.326,2.869,1.038,1.709
0.113,0.872,0.304,5.554,3.906,-0.916
0.093,0.929,0.337,1.099,1.404,-0.854
0.07,0.91,0.328,5.554,2.869,0.671
0.1,0.905,0.361,0.183,2.075,0.61
0.082,0.927,0.32,-2.319,-0.183,0.671
0.098,0.886,0.329,1.099,0.488,0.549
0.091,0.905,0.323,0.122,-0.366,0.305
0.098,0.895,0.306,1.465,2.136,-0.61
0.101,0.884,0.335,3.235,0.549,-0.916
0.096,0.901,0.315,-1.892,1.953,-0.183
0.104,0.887,0.331,-1.709,0.793,-1.648
0.094,0.908,0.322,-1.099,0.732,-1.099
0.095,0.902,0.327,0.305,1.709,-0.793
0.09,0.896,0.329,-0.122,0.061,-0.549
0.1,0.907,0.325,0.183,0.732,-0.427
0.101,0.902,0.32,0.122,1.343,-0.366
0.089,0.887,0.329,0.305,0.061,15.564
0.102,0.899,0.321,0.732,0.305,-0.244
0.093,0.901,0.327,0.183,1.038,0
0.099,0.895,0.323,-0.305,0.488,-0.732
0.096,0.895,0.314,1.16,0.793,-0.122
0.09,0.893,0.332,2.075,0.671,-0.793
0.105,0.911,0.323,-1.587,1.221,-0.427
0.098,0.899,0.322,1.221,1.038,-0.122
0.099,0.904,0.326,-0.916,1.16,-1.282
0.094,0.924,0.321,-0.366,1.038,0.122
0.104,0.887,0.337,3.296,0.366,-0.183
0.108,0.917,0.327,-1.831,1.465,0.549
0.099,0.886,0.337,0.61,0.061,-0.122
0.097,0.891,0.328,2.38,0.854,0.061
0.098,0.889,0.328,1.526,0.671,0.671
0.11,0.905,0.321,-1.587,1.16,-0.793
0.105,0.905,0.322,1.038,0.671,-0.916
0.094,0.887,0.328,0.305,0.488,0.183
0.099,0.9,0.333,-0.488,0.488,-0.122
0.1,0.898,0.331,2.136,0.244,0.244
0.101,0.899,0.322,-0.732,0.61,0.244
0.103,0.898,0.331,0.916,-0.305,0
0.097,0.892,0.323,-0.061,0.854,0
0.104,0.878,0.325,1.587,0.732,0
0.098,0.902,0.337,2.014,0.854,-0.244
0.111,0.892,0.33,0.916,1.16,-0.854
0.1,0.903,0.321,-0.427,0.549,0.427
0.101,0.886,0.333,2.197,0,-0.427
0.103,0.903,0.331,0.061,0.793,0.061
0.11,0.902,0.324,0.183,1.099,-0.366
0.095,0.911,0.327,0.793,1.038,0.427
0.096,0.888,0.332,0.61,0.732,0.183
0.107,0.899,0.334,1.404,0.671,-0.244
0.104,0.899,0.333,0.916,0.916,0.916
0.1,0.904,0.321,-0.183,0.488,0.671
0.099,0.894,0.336,1.221,0.183,-0.061
0.111,0.897,0.333,-0.366,1.099,0
0.099,0.909,0.324,0.793,1.16,0.793
0.099,0.894,0.328,-1.282,0.793,0
,,,,,
0.84,0.241,0.739,32.593,8.972,-0.854
-0.309,0.904,0.415,-8.667,-24.414,-7.08
0.095,0.846,0.314,18.738,1.587,3.601
0.098,0.906,0.417,1.709,-1.16,-9.521
0.075,0.879,0.458,2.014,-5.493,7.263
0.113,0.881,0.409,0.916,2.075,-2.563
0.09,0.865,0.418,3.052,-2.563,3.296
0.086,0.839,0.417,1.099,-0.061,-0.183
0.115,0.882,0.405,1.404,2.38,-0.977
0.089,0.847,0.431,0.366,-1.343,0.122
0.102,0.843,0.421,2.563,1.099,-1.282
0.093,0.878,0.399,1.587,-0.244,0.671
0.093,0.848,0.431,0.61,0.366,-0.488
0.105,0.865,0.422,-0.366,0.916,-1.16
0.09,0.849,0.42,0.61,0.854,1.099
0.096,0.854,0.43,-0.671,-0.183,-0.916
0.107,0.859,0.414,0.916,1.038,0.244
0.099,0.857,0.42,0.122,1.099,-0.549
0.098,0.856,0.427,-0.305,0.366,-0.732
0.1,0.864,0.417,0.061,0.732,0
0.1,0.849,0.42,-0.122,-0.244,-0.244
0.103,0.863,0.415,0.732,0.732,0.427
0.106,0.857,0.414,0.732,0.671,-1.465
0.098,0.861,0.421,0.244,0.977,0.122
0.102,0.85,0.425,-0.183,0.671,0.244
0.096,0.855,0.415,0.549,1.099,0.366
0.11,0.848,0.42,0.122,1.16,-1.221
0.1,0.863,0.428,-0.122,1.099,-0.061
0.103,0.869,0.41,-0.244,0.732,0.122
0.103,0.854,0.421,0.244,0.427,-0.427
0.102,0.857,0.417,0,0.427,0.854
0.099,0.867,0.407,0.488,1.038,0.305
0.098,0.859,0.416,-0.244,0.366,-0.244
0.104,0.863,0.427,-0.122,0.916,-0.305
0.106,0.858,0.408,1.526,0.732,0.793
0.095,0.86,0.423,0.244,0.549,0.122
0.102,0.862,0.419,0.732,0.61,0.732
0.102,0.852,0.413,0.122,0.61,0.183
0.105,0.858,0.423,1.282,0.793,-0.488
0.101,0.855,0.42,1.343,0.61,-0.061
0.104,0.856,0.415,0.427,1.099,0.244
0.099,0.861,0.423,0.366,0.793,0.61
0.105,0.866,0.426,-0.122,0.305,-0.122
0.102,0.856,0.41,1.404,1.038,1.16
0.099,0.856,0.417,-0.061,0.366,-0.916
0.101,0.854,0.42,0.916,0.183,-0.305
0.103,0.86,0.415,0.244,1.343,0.549
0.095,0.85,0.419,-0.305,0.305,0.366
0.103,0.856,0.42,0.061,0.427,-0.854
0.106,0.87,0.408,0.61,0.671,-0.122
0.096,0.859,0.421,0.549,0.671,0.061
0.1,0.867,0.422,0.61,0.122,0.183
0.107,0.86,0.416,0,0.671,0.854
0.101,0.859,0.413,0,0.61,0.366
0.108,0.864,0.416,0.061,0.977,-0.183
0.104,0.86,0.409,0.854,1.343,-0.366
0.099,0.856,0.418,0.671,0.549,0.488
0.102,0.86,0.42,0.549,0.854,0.061
0.104,0.867,0.422,0.427,0.916,0.305
0.098,0.861,0.418,0.244,0.916,0.61
0.093,0.867,0.416,1.343,1.587,0.671
0.096,0.863,0.416,1.038,2.38,0.854
0.103,0.853,0.418,0.366,2.075,0.183
0.102,0.86,0.416,-0.244,2.075,0.488
,,,,,
0.333,0.608,0.543,-10.498,-12.207,2.502
-0.068,0.823,0.442,-56.396,-30.396,2.808
0.079,1.388,0.122,-75.195,1.404,-11.108
0.047,0.768,0.425,10.864,-21.912,-6.531
0.106,0.909,0.297,3.723,-5.798,4.7
0.149,0.853,0.296,15.076,1.16,-0.793
0.103,0.921,0.251,-10.742,2.686,1.892
0.072,0.842,0.312,9.521,2.38,0.122
0.106,0.925,0.302,0.61,4.272,-0.305
0.086,0.944,0.294,2.075,1.465,0.854
0.092,0.884,0.357,3.113,2.563,0
0.091,0.915,0.306,-4.639,0.488,0.732
0.1,0.898,0.327,3.296,0.793,-0.183
0.093,0.911,0.318,1.099,0.671,0.671
0.089,0.898,0.307,0.732,1.587,-0.183
0.1,0.895,0.325,2.869,0.122,0.061
0.094,0.923,0.315,-2.075,0.916,0.427
0.093,0.896,0.309,0.305,1.221,0.061
0.09,0.909,0.315,0.977,1.038,-0.061
0.097,0.909,0.321,0.732,0.671,-0.061
0.098,0.88,0.312,0.671,1.038,-0.061
0.08,0.919,0.304,-2.563,0.732,0.488
0.092,0.892,0.32,2.808,0.183,-0.244
0.106,0.92,0.308,3.418,1.038,0.366
0.099,0.925,0.297,-4.272,2.258,0.61
0.096,0.901,0.316,2.136,0.671,0.122
0.091,0.906,0.326,1.099,0.488,-0.061
0.099,0.893,0.31,1.282,1.404,-0.244
0.092,0.911,0.316,2.502,1.038,0
0.1,0.901,0.301,0.366,1.099,-1.099
0.102,0.896,0.318,0.916,2.075,0.183
0.085,0.913,0.325,1.221,1.282,0.854
0.103,0.902,0.318,-1.526,1.404,0.366
0.094,0.906,0.325,-0.305,0.488,-0.183
0.09,0.903,0.316,2.319,0.854,0.671
0.098,0.903,0.311,0.061,1.038,0.183
0.098,0.902,0.32,1.709,0.427,0.305
0.097,0.907,0.313,1.038,1.038,0.61
0.103,0.886,0.318,1.282,0,-0.61
0.095,0.903,0.328,1.038,0.488,-0.061
0.096,0.905,0.326,1.831,0.916,0.366
0.094,0.886,0.321,0,0.671,-0.549
0.103,0.903,0.322,-0.305,0.916,0.305
0.093,0.9,0.326,0.977,0.244,0.488
0.104,0.89,0.319,0.122,0.671,-0.427
0.101,0.905,0.321,-0.305,0.793,-0.427
0.097,0.904,0.318,0.977,1.099,0.305
0.097,0.901,0.316,0.732,0.305,0.244
0.099,0.899,0.32,0.916,1.099,0.427
0.095,0.908,0.328,1.282,0.183,0.244
0.101,0.892,0.319,1.099,0.427,-0.305
0.1,0.898,0.322,0.732,0.549,0.122
0.093,0.908,0.323,1.16,1.038,-0.122
0.106,0.899,0.319,-0.488,1.16,-0.244
0.093,0.905,0.326,-0.366,0.366,0.122
0.097,0.898,0.326,1.038,0.366,0.427
0.099,0.903,0.317,0.854,0.305,-0.122
0.096,0.923,0.319,-0.366,1.099,0.183
0.09,0.897,0.317,0.61,0.793,0.183
0.097,0.908,0.325,-0.793,0.671,0.305
0.092,0.905,0.321,-0.122,0.427,0.305
0.096,0.894,0.319,-0.427,0.732,-0.183
0.099,0.907,0.318,0.488,0.732,-0.244
0.1,0.892,0.326,1.221,0.916,0
,,,,,
0.569,0.216,0.922,47.302,-4.883,-2.808
-0.032,0.984,0.408,-20.874,-10.071,-0.854
0.102,0.656,0.339,36.621,7.629,9.644
0.121,0.967,0.425,3.662,-3.723,-11.047
0.101,0.881,0.458,0.61,-1.77,9.277
0.111,0.887,0.425,0.305,0.122,-1.16
0.094,0.862,0.427,2.258,-2.808,5.615
0.1,0.845,0.411,-0.061,-0.671,0.427
0.106,0.848,0.402,1.038,-1.404,-0.122
0.088,0.845,0.408,0.488,-0.793,-0.488
0.099,0.852,0.412,0.854,0.549,-1.526
0.091,0.861,0.412,1.465,0.671,0.122
0.101,0.87,0.417,-1.282,0.671,-0.977
0.092,0.87,0.416,0.305,-0.122,0.732
0.104,0.86,0.419,0.122,1.038,-0.61
0.095,0.849,0.431,0,0.061,-0.488
0.093,0.853,0.418,0.732,0.305,0.061
0.098,0.857,0.407,-0.671,0,0.183
0.091,0.861,0.417,0.977,0.183,0.427
0.102,0.853,0.412,0.732,0.366,-0.061
0.099,0.863,0.408,0.244,1.038,-0.061
0.095,0.854,0.411,0.549,1.038,-0.305
0.094,0.851,0.414,0.732,0.488,0.061
0.095,0.855,0.423,1.099,0.671,0.61
0.098,0.865,0.415,0.427,0.793,0.122
0.104,0.869,0.416,-0.488,0.549,-0.427
0.091,0.858,0.408,0.671,0.793,1.221
0.089,0.855,0.421,0.916,1.038,0.122
0.099,0.861,0.417,0,0.793,-0.366
0.1,0.865,0.406,-0.061,0.488,0.305
0.091,0.855,0.416,-0.061,0.793,-0.183
0.092,0.85,0.422,0.488,0.793,-0.244
0.104,0.896,0.405,-1.709,1.343,-0.305
0.102,0.882,0.406,-2.075,0.244,0.61
0.097,0.861,0.403,0.854,0.671,0.244
0.095,0.855,0.421,0.244,0.427,-0.183
0.102,0.859,0.408,1.16,0.854,-0.183
0.098,0.869,0.422,0.183,0.61,-0.244
0.096,0.869,0.411,0.793,1.282,0.122
0.096,0.864,0.411,0.732,0.916,0.305
0.097,0.861,0.422,0.366,0.488,0.366
0.104,0.868,0.419,-0.061,0.427,-0.122
0.099,0.858,0.412,0.244,0.793,0.122
0.094,0.864,0.406,0.549,0.183,0.122
0.093,0.859,0.411,0.305,0.427,-0.305
0.1,0.86,0.418,0.793,0.732,0.061
0.099,0.859,0.411,1.16,0.488,0.732
0.095,0.863,0.409,-0.488,0.61,-0.61
0.097,0.854,0.414,0.671,0.671,-0.183
0.097,0.864,0.413,1.099,0.671,0.244
0.097,0.86,0.415,0.366,0.366,-0.122
0.099,0.855,0.414,0.183,0.916,0.122
0.093,0.851,0.416,1.16,0.366,0.305
0.101,0.854,0.409,1.221,1.343,-0.183
0.109,0.864,0.423,0.244,0.427,-1.221
0.101,0.866,0.417,0.549,1.343,0.061
0.103,0.863,0.409,0.061,1.038,0.183
0.099,0.86,0.418,0.244,0.488,0.244
0.103,0.861,0.416,-0.244,1.099,0.549
0.098,0.866,0.414,1.038,0.916,0.549
0.095,0.864,0.411,0.122,0.854,0
0.099,0.858,0.41,0.366,0.854,0.427
0.107,0.862,0.411,1.404,0.366,0.305
0.1,0.849,0.417,-0.549,0.305,-0.061
,,,,,
0.367,0.534,0.587,-4.089,-15.564,1.099
-0.046,0.79,0.525,-56.946,-25.208,0.854
0.05,1.569,-0.096,-55.847,2.625,11.292
-0.093,0.663,0.481,35.278,-20.081,-6.165
0.052,0.868,0.289,-18.738,5.066,7.874
0.117,0.826,0.311,18.616,1.526,-2.38
0.099,0.947,0.326,-6.897,0.305,-1.526
0.088,0.896,0.31,3.723,3.601,-1.831
0.098,0.916,0.324,-1.648,1.587,-1.16
0.069,0.91,0.321,2.441,1.038,0.732
0.077,0.91,0.326,-2.563,1.16,1.038
0.082,0.902,0.307,-1.282,0.244,0.183
0.089,0.887,0.31,1.953,0.183,0.793
0.078,0.892,0.311,-0.671,0.061,-1.16
0.086,0.893,0.323,1.16,1.77,-1.099
0.077,0.918,0.32,-0.916,0.183,-0.305
0.088,0.928,0.298,-2.136,1.831,-0.793
0.078,0.893,0.345,1.953,-0.671,-0.183
0.083,0.918,0.299,-1.831,1.038,0.183
0.091,0.896,0.308,0.854,0.854,0
0.075,0.907,0.333,2.075,-0.305,0.549
0.095,0.895,0.313,0.305,1.526,-0.305
0.082,0.888,0.327,0.61,-0.122,0.122
0.078,0.904,0.311,-0.793,0.427,-0.549
0.094,0.892,0.308,-1.038,1.404,-0.366
0.085,0.903,0.325,0.305,0.671,-0.732
0.088,0.907,0.318,0,1.038,-0.183
0.091,0.9,0.317,1.099,1.038,-0.671
0.083,0.898,0.318,-0.977,0.244,-1.038
0.097,0.911,0.312,-0.061,0.916,-1.404
0.086,0.899,0.321,0.916,0.549,-0.488
0.082,0.891,0.317,2.625,0.854,0.427
0.096,0.92,0.318,-0.977,1.343,-0.122
0.085,0.913,0.313,-0.061,1.099,0.854
0.087,0.896,0.325,2.136,0.793,0.305
0.09,0.901,0.318,1.892,0.488,0
0.095,0.902,0.312,-1.587,1.099,-0.305
0.093,0.895,0.311,0.854,1.099,0.122
0.091,0.913,0.302,-1.526,0.977,-0.061
0.084,0.895,0.326,0.183,-0.061,-0.122
0.093,0.904,0.319,2.991,0.916,-0.122
0.096,0.907,0.313,0.732,1.16,0.549
0.085,0.896,0.32,0.366,0.122,0.183
0.089,0.903,0.321,1.343,0.61,0.854
0.092,0.903,0.314,0.549,0.61,0.427
0.089,0.895,0.328,1.099,0.61,-0.549
0.096,0.903,0.31,1.16,0.793,-0.061
0.087,0.902,0.316,2.014,0.366,0.61
0.086,0.904,0.326,1.16,0.732,0.122
0.098,0.9,0.321,0.793,0.977,-0.183
0.093,0.91,0.321,-0.732,0.916,-0.366
0.088,0.898,0.314,0.305,0.732,0.61
0.088,0.914,0.319,-0.427,0.671,-0.366
0.094,0.904,0.323,0.977,0.854,-0.122
0.085,0.908,0.309,0.122,1.282,0.916
0.084,0.897,0.316,-0.061,-0.427,-0.061
0.087,0.905,0.328,1.831,0.488,0
0.091,0.91,0.302,0.061,1.709,0.793
0.088,0.885,0.32,0.977,0.183,-0.183
0.088,0.907,0.324,1.16,0.732,0.854
0.091,0.906,0.31,-0.549,1.16,0
0.092,0.902,0.317,1.892,0.549,-0.244
0.103,0.913,0.321,-1.16,1.221,-0.488
0.092,0.905,0.317,0.549,1.038,0.61
,,,,,
0.047,1.221,0.077,79.712,40.771,0.61
0.466,0.164,0.826,39.001,-14.954,-0.793
0.13,1.204,0.34,-4.272,3.662,6.897
0.097,0.65,0.359,23.437,3.479,5.798
0.1,0.98,0.437,3.479,-4.944,-8.301
0.101,0.875,0.419,-0.427,-2.686,8.728
0.11,0.881,0.406,-1.465,0.427,-1.282
0.079,0.846,0.428,2.93,-3.296,3.967
0.097,0.858,0.395,1.709,-0.244,0.427
0.114,0.857,0.401,0.977,-1.404,-0.671
0.085,0.852,0.412,0.427,-1.099,0.061
0.09,0.866,0.403,1.16,0.916,-0.671
0.093,0.853,0.413,1.953,-0.671,-0.549
0.092,0.87,0.408,1.038,0.549,-0.732
0.094,0.857,0.413,2.014,0.61,0.61
0.087,0.871,0.416,-0.488,0.183,-0.427
0.094,0.86,0.401,-0.427,0.854,0.366
0.086,0.867,0.408,0.671,0.366,-0.488
0.086,0.861,0.42,0.732,0.793,-0.488
0.1,0.873,0.408,0.854,1.038,-0.183
0.096,0.872,0.412,-0.122,0.916,0.61
0.098,0.863,0.415,-0.183,0.732,0.122
0.093,0.866,0.415,0,1.16,0.305
0.09,0.86,0.408,1.221,1.16,0.366
0.088,0.848,0.417,0.732,0.183,-0.427
0.092,0.863,0.412,0,1.343,-0.244
0.09,0.856,0.41,1.465,0.549,0.61
0.096,0.869,0.412,-0.427,0.671,-0.61
0.092,0.864,0.413,-0.061,0.977,-0.305
0.091,0.86,0.405,1.282,1.099,0.183
0.093,0.859,0.421,0.61,0.549,-0.305
0.088,0.859,0.422,1.282,0.732,0.671
0.1,0.865,0.405,0.488,0.854,-0.122
0.095,0.874,0.404,0.122,0.732,0.366
0.103,0.87,0.406,0.671,0.977,-0.854
0.095,0.863,0.408,0.244,1.038,-0.061
0.092,0.853,0.424,-0.366,1.099,0.122
0.099,0.889,0.424,-1.099,0.977,-0.305
0.101,0.868,0.412,0.122,0.916,0.977
0.093,0.867,0.408,1.16,0.854,0.854
0.1,0.875,0.411,0,0.427,-0.305
0.102,0.873,0.406,0.549,1.465,0.122
0.1,0.871,0.409,0.244,0.793,0.305
0.09,0.865,0.415,0,0.488,0.549
0.092,0.851,0.408,0.366,1.038,0
0.1,0.864,0.409,0.427,0.977,-0.305
0.094,0.871,0.407,-0.427,0.793,0.122
0.099,0.86,0.404,0.305,1.282,0.305
0.093,0.863,0.414,0.244,1.16,0.244
0.097,0.863,0.403,1.709,1.099,0.305
0.098,0.859,0.415,-0.854,1.038,-0.916
0.098,0.869,0.412,0.916,1.099,-0.122
0.095,0.872,0.413,0.671,0.977,-0.061
0.103,0.868,0.417,-0.732,0.488,0.122
0.1,0.865,0.412,0.671,0.122,0.61
0.098,0.87,0.407,-0.183,1.16,0.061
0.094,0.863,0.408,1.282,1.038,0.793
0.099,0.863,0.411,0.488,0.732,-0.061
0.102,0.864,0.414,0.977,1.221,0.244
0.094,0.866,0.408,1.099,0.671,0.854
0.096,0.857,0.412,0.122,1.099,-0.183
0.097,0.871,0.414,0.427,0.61,-0.549
0.095,0.868,0.408,0.061,1.099,0.305
0.097,0.869,0.411,0.549,0.488,0.244
,,,,,
0.172,0.714,0.535,-9.46,-7.019,-1.404
0.008,0.822,0.434,-22.461,-14.771,20.447
0.101,1.073,0.232,-38.025,-8.24,-1.465
0.139,0.865,0.384,-4.089,-6.47,6.042
0.078,0.872,0.34,-6.226,-5.554,9.949
0.125,0.929,0.282,-4.761,5.249,-2.869
0.068,0.906,0.32,-0.244,0.427,-2.319
0.068,0.901,0.292,3.052,-0.793,-1.282
0.08,0.915,0.315,2.136,2.747,-2.38
0.06,0.91,0.357,3.662,-0.244,0.366
0.098,0.921,0.292,-2.869,2.197,-0.854
0.079,0.894,0.348,1.648,0.732,0.305
0.079,0.903,0.329,2.319,1.709,0.732
0.089,0.895,0.323,-0.183,1.648,-0.244
0.067,0.897,0.336,-1.099,-0.793,0.61
0.072,0.913,0.302,0.061,1.16,-0.122
0.085,0.899,0.314,0.427,0.061,-1.465
0.076,0.897,0.311,0.305,1.526,-0.977
0.089,0.902,0.318,-0.183,0.854,-1.099
0.074,0.911,0.327,2.075,0.488,-0.244
0.087,0.904,0.323,0.61,1.953,-0.183
0.085,0.896,0.321,1.099,0.549,-0.305
0.084,0.906,0.317,0.122,1.343,-0.732
0.088,0.904,0.326,1.404,1.465,-1.77
0.081,0.91,0.323,2.808,0.427,-0.854
0.086,0.912,0.312,1.221,0.549,-0.183
0.093,0.906,0.327,0.305,0.854,0
0.086,0.896,0.339,-0.854,-0.122,0
0.093,0.902,0.311,1.526,1.465,0.61
0.083,0.909,0.326,0.732,0,-0.244
0.089,0.906,0.321,-0.305,0.183,0.305
0.084,0.894,0.32,0.427,1.282,0.061
0.079,0.897,0.333,1.282,0.549,0.061
0.084,0.916,0.321,0.427,1.038,0.305
0.087,0.894,0.326,0.549,0.122,-0.244
0.09,0.893,0.323,0,1.16,-0.488
0.088,0.896,0.328,-0.549,-0.122,0.061
0.085,0.899,0.32,1.587,0.61,0.671
0.092,0.888,0.32,1.16,0.793,-0.183
0.088,0.896,0.32,0.305,0.183,-0.671
0.085,0.894,0.317,1.587,1.343,-0.061
0.091,0.905,0.326,1.465,0.977,-0.183
0.084,0.933,0.329,-1.221,0.427,0.549
0.089,0.9,0.322,0.244,1.282,0.488
0.084,0.905,0.325,1.526,0.427,0.366
0.083,0.895,0.319,-2.38,0.916,0.061
0.086,0.893,0.322,0.427,0.366,-0.305
0.095,0.893,0.323,0.427,1.221,-0.549
0.091,0.893,0.317,0.366,1.77,-0.305
0.08,0.903,0.318,-0.854,0.671,-0.183
0.089,0.91,0.326,-0.183,0.61,-0.305
0.089,0.902,0.322,0.916,0.793,0.61
0.089,0.907,0.317,0.183,1.831,0
0.094,0.902,0.328,0.427,0.122,0.061
0.082,0.9,0.325,0.854,0.427,1.221
0.093,0.899,0.316,-0.183,1.465,0.183
0.094,0.902,0.323,0.671,0.366,-0.122
0.09,0.914,0.313,-0.427,1.526,0.061
0.089,0.893,0.318,1.709,0.916,0.244
0.087,0.905,0.319,0.549,0.977,0.305
0.091,0.897,0.322,0.793,0.549,-0.183
0.089,0.904,0.329,0.61,0.732,0.122
0.087,0.9,0.322,0.244,1.038,0.61
0.096,0.907,0.318,1.038,0.488,-0.061
,,,,,
0.63,0.301,0.847,26.123,-2.563,0.488
-0.032,0.979,0.418,-12.268,-15.747,-4.639
0.087,0.766,0.315,24.231,6.348,5.676
0.085,0.934,0.403,-3.113,-3.052,-6.348
0.088,0.868,0.417,4.089,-3.357,7.385
0.119,0.882,0.392,-1.221,-0.244,-1.709
0.087,0.863,0.397,4.883,-3.662,3.418
0.093,0.849,0.393,0.977,0.793,-1.587
0.108,0.885,0.397,-1.099,-0.916,-1.16
0.085,0.865,0.395,1.343,0.549,0.488
0.094,0.863,0.398,0.427,1.038,-1.099
0.088,0.871,0.401,-0.244,-1.282,0
0.095,0.877,0.396,0.244,0.854,0.061
0.094,0.863,0.402,0.732,0.305,0
0.084,0.859,0.398,1.77,0.366,-0.183
0.097,0.888,0.393,-0.122,0.61,-0.854
0.094,0.863,0.409,-1.16,0.427,-0.61
0.09,0.864,0.392,0.427,0.854,0.366
0.091,0.86,0.395,1.343,0,-0.122
0.096,0.872,0.397,0.122,0.671,-1.038
0.099,0.871,0.394,0.305,1.038,0.61
0.089,0.863,0.388,1.038,0.854,0.122
0.1,0.872,0.394,1.221,0.732,0
0.093,0.861,0.404,0.61,0.305,0.671
0.096,0.865,0.396,1.709,0.366,0.244
0.097,0.873,0.398,0.427,0.61,-0.122
0.091,0.863,0.396,1.038,0.366,-0.305
0.092,0.863,0.392,1.404,0.366,0.061
0.089,0.86,0.406,-0.183,0,0.122
0.093,0.872,0.402,0.977,0.793,0.122
0.094,0.868,0.399,0.671,0.977,0.427
0.095,0.871,0.394,0.244,0.732,0.305
0.094,0.87,0.4,0.549,0.427,0.549
0.089,0.865,0.406,0.793,0.793,-0.122
0.099,0.875,0.396,1.099,0.793,0.916
0.089,0.872,0.399,0,0.122,0.427
0.093,0.865,0.406,0.488,0.488,0
0.096,0.871,0.399,-0.122,0.854,0.61
0.094,0.872,0.391,1.282,0.549,0.549
0.091,0.871,0.402,-0.244,0.61,0.183
0.097,0.872,0.398,0.366,0.671,0.854
0.098,0.87,0.387,1.77,1.221,0.488
0.095,0.871,0.403,-0.061,0.366,-0.061
0.098,0.873,0.397,-0.183,1.343,-0.671
0.091,0.876,0.398,0.977,0.488,0.488
0.089,0.869,0.403,0.549,0.793,0.488
0.099,0.874,0.403,0.305,0.488,0.549
0.092,0.869,0.395,0.916,0.244,0.916
0.085,0.866,0.396,0.366,0.61,0.793
0.097,0.868,0.399,1.282,0.366,0.244
0.091,0.868,0.403,0.732,0.427,0.488
0.089,0.864,0.394,1.221,1.404,1.221
0.093,0.866,0.401,0.305,0.244,-0.122
0.09,0.875,0.406,0.671,0.793,0.488
0.093,0.875,0.395,0.854,0.977,0.183
0.094,0.873,0.403,0.793,0.61,0.61
0.092,0.864,0.398,-0.671,0.549,0.732
0.094,0.876,0.405,0.122,0.977,0.061
0.092,0.869,0.395,0.549,0.977,0.488
0.092,0.871,0.403,0.549,1.038,-0.793
0.093,0.872,0.402,0.244,1.16,0.488
0.09,0.869,0.399,0.549,1.038,0.854
0.096,0.864,0.398,-0.061,0.854,0.244
0.093,0.872,0.406,0.488,0.549,0.244
,,,,,
0.078,1.206,0.364,6.653,16.907,1.526
0.387,0.003,0.817,-3.54,13.062,-1.587
-0.159,1.223,0.419,-102.661,-19.775,-24.963
0.074,1.615,-0.152,-43.457,21.179,7.874
-0.015,0.756,0.35,15.32,-14.648,-0.244
0.044,0.953,0.278,-10.254,-0.366,12.024
0.109,0.858,0.329,19.897,-2.991,2.93
0.126,0.878,0.241,9.583,3.54,7.69
0.064,0.865,0.286,10.559,-0.122,0.244
0.107,0.907,0.303,1.77,1.099,-0.793
0.109,0.892,0.306,7.751,0.732,-0.183
0.111,0.968,0.293,-6.775,3.296,0.244
0.09,0.885,0.31,5.737,0.122,0.183
0.095,0.93,0.309,-2.808,0.671,-1.343
0.107,0.949,0.295,-5.432,1.038,-0.671
0.097,0.887,0.319,2.93,-0.549,-0.61
0.099,0.912,0.321,2.502,2.075,-0.916
0.093,0.896,0.302,3.784,1.282,-0.549
0.091,0.912,0.302,0.732,3.54,-2.38
0.112,0.901,0.323,6.226,4.944,-4.089
0.091,0.902,0.333,7.263,5.798,-2.319
0.113,0.914,0.302,5.554,7.935,-2.808
0.125,0.91,0.328,9.888,6.592,-3.479
0.151,0.905,0.321,7.385,6.958,-2.686
0.12,0.882,0.329,11.841,6.531,-1.77
0.152,0.883,0.304,8.972,5.066,-2.136
0.145,0.878,0.312,6.348,3.845,-0.854
0.142,0.858,0.312,4.089,1.099,-2.502
0.146,0.87,0.331,-0.366,-0.183,-3.479
0.158,0.88,0.331,-0.671,-0.488,-3.479
0.158,0.887,0.338,-0.488,1.648,-3.662
0.147,0.886,0.359,0.305,-1.099,-3.052
0.162,0.871,0.363,1.831,-1.404,-2.869
0.167,0.888,0.357,-1.77,-3.479,-0.793
0.145,0.902,0.357,-0.244,-3.54,-1.587
0.147,0.871,0.359,4.089,-1.587,-2.869
0.152,0.895,0.332,0.366,-1.038,-1.709
0.143,0.86,0.35,4.272,-3.662,-1.099
0.149,0.875,0.353,-1.77,-2.38,0.244
0.145,0.905,0.345,-3.296,-4.883,-0.183
0.129,0.891,0.366,1.404,-4.7,-1.404
0.131,0.883,0.365,0.183,-3.54,0.244
0.135,0.883,0.332,-1.465,-3.723,4.517
0.138,0.892,0.349,-0.793,-4.883,3.357
0.117,0.892,0.356,-0.183,-2.136,3.052
0.153,0.901,0.351,-1.831,1.282,2.869
0.138,0.876,0.366,0.916,0.671,1.038
0.127,0.883,0.364,0.061,0.244,0.977
0.123,0.907,0.347,-1.831,-1.099,1.343
0.123,0.88,0.337,-0.305,-2.197,2.869
0.135,0.897,0.35,-1.282,-2.441,3.845
0.122,0.906,0.345,-0.671,-1.343,3.296
0.115,0.88,0.338,2.625,1.465,1.343
0.115,0.874,0.343,1.892,2.319,0.122
0.117,0.879,0.339,1.892,2.319,0.183
0.118,0.886,0.342,0.244,1.831,0.671
0.126,0.885,0.342,-0.061,1.282,0.183
0.121,0.891,0.353,-2.38,0.549,-0.671
0.119,0.885,0.365,-0.671,0.977,-0.549
0.125,0.891,0.355,1.526,2.136,-0.549
0.127,0.889,0.358,2.075,1.953,0.427
0.106,0.9,0.348,-0.305,0.549,0.305
0.119,0.887,0.357,-1.099,0.244,-0.183
0.131,0.887,0.35,0.549,-0.854,0
,,,,,
0.821,0.154,0.87,17.822,3.54,2.93
-0.083,1.038,0.451,9.583,-15.442,-5.981
0.057,0.85,0.382,9.766,4.211,9.949
0.105,0.887,0.433,2.197,-2.563,-9.094
0.082,0.875,0.465,-0.61,-6.104,4.517
0.127,0.833,0.446,2.014,-1.038,-0.977
0.133,0.849,0.431,0,-3.967,3.601
0.111,0.855,0.415,4.089,-2.93,1.16
0.126,0.833,0.438,-0.427,-1.648,-1.648
0.113,0.826,0.432,0.854,-0.793,-0.671
0.112,0.851,0.435,-0.793,0,-2.502
0.121,0.854,0.441,-1.465,-0.366,-0.366
0.127,0.854,0.437,0,0.244,-0.916
0.125,0.851,0.427,-0.244,0.916,0.061
0.118,0.848,0.43,-0.488,-0.061,0
0.11,0.845,0.426,-0.427,0.549,-0.061
0.119,0.863,0.433,-0.732,0.183,-0.671
0.109,0.841,0.425,-0.244,-0.183,1.038
0.117,0.845,0.428,0.366,0.122,-1.099
0.119,0.85,0.428,-0.488,-0.183,-0.427
0.118,0.86,0.426,-0.427,1.343,-0.488
0.122,0.854,0.428,-0.854,0.305,-0.183
0.116,0.856,0.43,-0.427,0.854,0.244
0.122,0.856,0.431,0.244,0.061,-0.366
0.12,0.869,0.421,-0.793,0.488,0.61
0.119,0.853,0.428,-0.305,0.61,0.183
0.118,0.852,0.432,1.831,1.282,0.977
0.124,0.848,0.427,0.977,0.977,0.549
0.118,0.837,0.427,1.526,0.122,0.488
0.125,0.853,0.43,0.977,0.427,-0.427
0.116,0.854,0.423,0.427,0.977,0.183
0.118,0.849,0.424,-0.366,0.488,-0.549
0.116,0.848,0.433,-0.793,0.305,-0.549
0.118,0.856,0.423,0.671,0.61,-0.244
0.116,0.855,0.427,-0.61,0.061,-0.183
0.118,0.858,0.42,-0.549,0.916,0.244
0.116,0.859,0.426,-0.122,0.488,-0.061
0.116,0.863,0.423,0.122,0.793,0.122
0.124,0.865,0.422,-0.488,1.221,0.305
0.112,0.847,0.434,-0.549,0.366,0.305
0.121,0.845,0.417,1.343,0.732,0.427
0.119,0.862,0.426,-0.366,0.916,0.061
0.117,0.865,0.429,-0.061,0.61,0.305
0.119,0.849,0.421,1.038,1.099,0.488
0.122,0.839,0.421,1.282,0.305,0.122
0.12,0.853,0.425,0.671,0.549,0.427
0.121,0.855,0.425,0.732,0.916,-0.183
0.12,0.856,0.426,-0.122,0.488,-0.366
0.117,0.849,0.422,0.366,0.793,0.305
0.118,0.862,0.428,-0.244,0.427,-0.122
0.125,0.858,0.417,0.488,0.977,0.305
0.113,0.852,0.416,-0.061,-0.061,0.61
0.117,0.856,0.426,-0.488,0,-0.061
0.122,0.861,0.42,0.793,1.099,0.183
0.119,0.844,0.422,0.366,0.732,-0.183
0.123,0.876,0.421,-1.526,0.916,-0.366
0.118,0.858,0.425,-0.793,0.61,0.549
0.122,0.845,0.425,1.099,0.854,0.122
0.126,0.855,0.415,0.122,0.61,0.122
0.113,0.853,0.423,-0.061,0.488,-0.183
0.119,0.853,0.422,-0.183,0.183,-0.366
0.117,0.855,0.424,-0.122,0.916,0.488
0.119,0.865,0.421,0.061,0.793,0
0.118,0.857,0.423,0.122,1.16,0.244
,,,,,
0.138,1.044,0.34,-21.973,5.066,1.892
0.201,0.737,0.367,-39.612,14.343,0.122
0.097,1.071,0.398,-45.776,-13.184,0.977
0.018,0.683,0.32,-7.141,-9.46,13.977
0.12,1.289,0.135,-34.607,12.451,10.559
0.02,0.705,0.431,19.104,-11.597,0.549
0.078,0.875,0.32,-1.648,0.671,3.723
0.122,0.866,0.295,4.639,2.197,1.465
0.102,0.896,0.318,-2.991,-0.732,-1.404
0.095,0.914,0.319,-5.249,1.953,-1.709
0.107,0.873,0.316,1.282,0.549,-2.136
0.091,0.915,0.351,-2.014,0.244,-0.854
0.106,0.908,0.327,2.197,3.174,-0.366
0.107,0.895,0.335,1.282,-0.793,0.366
0.094,0.913,0.33,-1.282,-0.122,0.671
0.102,0.879,0.336,0.549,-0.427,-0.305
0.098,0.911,0.325,-1.404,-0.549,-0.061
0.104,0.895,0.321,0.793,1.16,-0.732
0.097,0.901,0.32,0.244,0.366,-0.122
0.101,0.907,0.318,0.61,1.282,-0.977
0.105,0.895,0.323,1.587,1.038,-0.916
0.105,0.905,0.329,-1.404,0.977,-0.549
0.099,0.906,0.32,0.549,0.854,0.061
0.102,0.899,0.336,2.747,0.61,-0.061
0.1,0.906,0.329,-0.305,0.732,-0.366
0.109,0.886,0.329,-0.122,0.061,-0.427
0.106,0.886,0.333,2.258,-0.549,-0.671
0.105,0.899,0.323,-0.549,0.732,-0.671
0.107,0.9,0.334,0.916,0.244,-0.549
0.11,0.916,0.319,-0.793,1.587,0.183
0.101,0.892,0.328,-0.977,0.549,0.61
0.106,0.903,0.328,-0.183,0.366,0.305
0.103,0.903,0.322,0.61,0.732,-0.183
0.103,0.899,0.322,-0.61,1.526,-0.061
0.104,0.895,0.322,0.427,0.732,-0.061
0.108,0.899,0.327,-0.183,0.244,0.183
0.106,0.894,0.336,0.061,0.488,-0.183
0.104,0.899,0.328,-0.793,0.916,-0.488
0.112,0.889,0.319,1.099,-0.305,-1.526
0.112,0.903,0.325,-1.892,-0.183,-1.587
0.113,0.899,0.324,1.709,0.549,-0.366
0.107,0.895,0.315,0,0.793,0.793
0.098,0.899,0.332,-0.549,-0.488,1.282
0.102,0.902,0.327,1.038,0.427,0.916
0.103,0.911,0.324,-1.099,0.488,0.427
0.101,0.902,0.321,-0.854,0.854,0.305
0.111,0.893,0.326,0.183,0.061,0.549
0.101,0.91,0.318,-0.366,0.488,1.221
0.108,0.895,0.325,0.61,0.427,-0.122
0.113,0.893,0.316,0.671,1.099,-0.671
0.11,0.895,0.326,1.16,0.732,0.305
0.106,0.891,0.324,1.038,0.977,-0.305
0.114,0.924,0.313,-2.197,1.221,-0.183
0.098,0.907,0.322,-1.099,0.488,-0.366
0.105,0.878,0.339,0.305,0.549,0.122
0.105,0.902,0.323,3.906,1.16,0.549
0.101,0.899,0.322,-1.099,0.61,-0.244
0.113,0.891,0.312,1.343,0.549,0.122
0.105,0.897,0.32,-0.183,0.488,-0.183
0.104,0.903,0.318,-0.305,1.465,-1.343
0.109,0.894,0.319,-0.732,1.465,-0.977
0.104,0.907,0.323,0.488,0.183,-0.854
0.104,0.91,0.321,-0.977,1.16,0.244
0.106,0.896,0.324,0.671,0.488,0.61
,,,,,
0.397,0.484,0.585,23.682,-17.761,-9.644
-0.01,0.901,0.332,5.249,-5.371,9.46
0.056,0.705,0.386,23.437,4.333,-0.671
0.12,0.934,0.458,-6.104,-1.648,-10.559
0.098,0.877,0.434,4.456,-1.221,6.47
0.13,0.851,0.418,0.549,-1.282,-0.916
0.101,0.867,0.421,2.258,-2.991,3.967
0.107,0.846,0.422,2.747,-0.671,-0.427
0.108,0.858,0.411,0.488,-0.854,-0.732
0.104,0.842,0.412,0.916,-1.465,-1.099
0.115,0.855,0.41,-0.671,0.366,-1.221
0.099,0.86,0.413,-0.305,-0.854,-0.183
0.109,0.863,0.424,-0.61,0.366,-0.854
0.101,0.864,0.417,-0.977,0.305,-0.977
0.098,0.847,0.421,0.793,1.038,-0.183
0.107,0.855,0.415,0.305,0.916,-0.305
0.104,0.863,0.419,0.427,0.122,0.671
0.107,0.856,0.421,0.061,1.282,0.061
0.11,0.865,0.404,-0.061,1.099,-0.671
0.095,0.85,0.426,0.122,0.122,-0.916
0.101,0.841,0.415,1.648,1.099,0.122
0.12,0.864,0.415,-0.488,0.732,-0.488
0.109,0.86,0.415,-0.061,0.916,0.671
0.099,0.852,0.418,0.732,1.038,0
0.106,0.86,0.418,-0.854,1.038,-0.122
0.113,0.864,0.411,0,0.793,-0.427
0.111,0.863,0.42,0.244,0.549,0
0.105,0.862,0.41,0,1.099,0.977
0.106,0.858,0.416,0.366,0.305,-0.122
0.105,0.855,0.418,0.854,0.183,-0.061
0.112,0.874,0.404,0.549,1.343,0.061
0.106,0.859,0.416,0.061,0.366,0.488
0.109,0.86,0.419,-0.366,0.854,-0.061
0.113,0.862,0.415,-0.305,0.732,0.671
0.11,0.854,0.407,1.099,1.099,0.305
0.112,0.855,0.424,0.732,0.732,-0.916
0.105,0.846,0.421,1.282,0.61,-0.122
0.11,0.867,0.413,0.488,0.793,-0.244
0.111,0.868,0.42,-0.244,0.671,-0.244
0.115,0.861,0.41,-0.488,1.282,0.061
0.107,0.86,0.407,1.099,0.488,0.244
0.109,0.853,0.412,-0.122,0.305,-0.732
0.112,0.873,0.418,0.183,0.977,-0.122
0.11,0.858,0.416,0.183,0.732,0.305
0.109,0.855,0.412,-0.732,1.038,-0.244
0.113,0.865,0.409,0.122,0.732,0.244
0.109,0.857,0.425,0.549,0.549,-0.183
0.107,0.857,0.41,0.122,1.038,0.061
0.112,0.861,0.409,-0.061,0.916,0.122
0.104,0.877,0.409,-1.648,0.122,-0.061
0.109,0.854,0.404,0.793,0.793,0.488
0.109,0.854,0.414,0.305,0.549,0.122
0.105,0.85,0.415,0.061,0.061,-0.671
0.103,0.863,0.417,-0.061,-0.366,-0.977
0.115,0.864,0.416,-0.732,0.305,-0.305
0.106,0.867,0.404,0.793,0.488,0.854
0.112,0.858,0.414,0.305,1.099,-0.549
0.104,0.864,0.412,0.305,0.427,0.183
0.107,0.868,0.403,0.183,0.61,0.122
0.115,0.855,0.411,0.244,0.916,-0.061
0.103,0.854,0.422,0.61,1.038,1.099
0.106,0.867,0.397,1.099,0.305,0.732
0.111,0.865,0.401,-0.122,0.488,-0.366
0.112,0.867,0.415,-0.427,0.671,0.793
,,,,,
0.185,0.796,0.517,-38.574,-12.329,-5.615
-0.048,0.938,0.273,-44.434,-5.676,6.531
0.131,1.265,0.004,-11.658,4.883,3.418
0.035,0.818,0.449,16.541,-16.907,-2.38
0.089,0.908,0.321,-2.747,2.319,9.644
0.124,0.803,0.306,11.841,-1.404,1.16
0.103,0.926,0.277,-5.188,1.831,2.93
0.114,0.883,0.306,2.93,2.991,-0.061
0.1,0.929,0.317,-0.793,0.61,-0.061
0.117,0.905,0.318,-0.854,2.502,-0.61
0.116,0.888,0.342,2.136,0.671,-0.122
0.115,0.934,0.287,-2.747,2.563,0
0.116,0.888,0.334,1.526,-0.183,-0.61
0.088,0.909,0.323,-2.197,0.61,0.366
0.109,0.899,0.302,1.099,1.404,0.793
0.101,0.906,0.319,0.61,-0.488,0.366
0.102,0.903,0.309,1.404,1.404,0
0.11,0.911,0.311,2.747,0.793,-0.671
0.102,0.895,0.322,0.549,0.061,0
0.108,0.905,0.319,0.732,1.16,-0.183
0.114,0.906,0.313,-0.854,1.282,0.122
0.102,0.903,0.314,0.671,0.366,0.305
0.108,0.902,0.321,0.427,0.732,0
0.11,0.902,0.321,0.244,0.854,-0.061
0.107,0.898,0.319,0.366,1.099,-0.122
0.111,0.899,0.316,0.61,0.488,0.061
0.114,0.906,0.315,-1.16,1.038,0.305
0.103,0.9,0.314,1.282,1.038,0.183
0.107,0.898,0.317,0.916,0.366,-0.427
0.112,0.914,0.317,-0.244,1.221,-0.305
0.11,0.909,0.309,-1.099,1.221,0.122
0.103,0.897,0.316,-0.61,0,0
0.103,0.9,0.33,1.648,0.183,0.244
0.112,0.916,0.311,1.465,0.427,0.061
0.106,0.895,0.317,0.671,0.671,0.244
0.109,0.907,0.305,-0.427,0.671,0.061
0.101,0.883,0.325,1.77,0,-0.122
0.116,0.923,0.318,-0.244,0.977,0.61
0.12,0.9,0.308,-0.061,1.221,0.549
0.107,0.929,0.303,-1.526,0.122,0.122
0.105,0.876,0.315,-1.282,0.732,-0.366
0.106,0.903,0.323,1.709,0.427,-0.122
0.111,0.912,0.298,-1.587,1.648,0.427
0.107,0.89,0.325,1.465,0.244,0.549
0.102,0.91,0.317,0.916,0.916,0.793
0.122,0.937,0.296,-3.113,1.282,0.061
0.107,0.88,0.325,1.465,-0.305,-0.061
0.113,0.89,0.324,1.404,1.221,-0.061
0.111,0.899,0.31,-0.732,0.854,0.732
0.102,0.895,0.32,0.366,0.549,0.183
0.117,0.898,0.327,1.282,0.854,-0.549
0.104,0.903,0.319,0.244,0.916,0.549
0.106,0.896,0.321,0.732,0.732,-0.549
0.109,0.915,0.313,-0.366,0.671,-0.183
0.107,0.898,0.312,-1.038,1.465,0.061
0.104,0.893,0.324,1.709,0.122,0.427
0.11,0.908,0.317,0.671,0.427,0.488
0.115,0.896,0.311,-0.305,1.16,0.244
0.103,0.898,0.32,1.892,0.488,0.427
0.112,0.895,0.318,0.488,1.282,0.122
0.112,0.905,0.315,-1.038,0.671,0.183
0.103,0.902,0.319,1.953,0.183,0.305
0.115,0.889,0.319,1.038,1.038,0.061
0.118,0.914,0.307,-0.671,0.916,0.122
,,,,,
0.405,0.836,0.434,1.77,-25.818,-10.437
0.14,1.101,0.367,9.216,-1.892,12.878
0.075,0.819,0.334,8.179,6.287,2.136
0.064,0.876,0.408,1.099,-4.456,-8.484
0.09,0.857,0.436,1.465,-3.052,0.183
0.122,0.857,0.408,2.502,0.854,-0.366
0.098,0.881,0.407,0.549,-2.991,2.258
0.102,0.826,0.425,2.686,0.122,0.183
0.125,0.873,0.416,0.549,-1.099,-0.061
0.097,0.852,0.407,0.122,-1.099,-0.488
0.106,0.87,0.412,-0.977,0.732,-1.099
0.099,0.863,0.407,-0.305,-0.305,-0.305
0.104,0.858,0.408,1.038,1.099,-0.671
0.098,0.866,0.412,0.671,-0.854,0.122
0.112,0.863,0.415,0.122,1.282,-0.61
0.108,0.867,0.414,0.244,0.366,0
0.106,0.863,0.411,-0.122,1.282,0.122
0.109,0.862,0.411,-0.061,1.038,-0.549
0.105,0.862,0.419,0.427,0.366,-0.061
0.11,0.859,0.405,0,0.671,0.244
0.104,0.865,0.417,0.244,0.916,-0.183
0.107,0.86,0.414,1.587,1.038,0.061
0.105,0.855,0.41,1.343,0.854,0.244
0.111,0.871,0.416,-0.061,1.221,-0.244
0.105,0.86,0.42,0.244,0.305,0.366
0.11,0.853,0.416,0.549,1.404,-0.061
0.106,0.856,0.409,0.793,0.61,0.061
0.107,0.863,0.417,0,0.549,0.244
0.108,0.863,0.415,1.221,0.916,-0.061
0.103,0.868,0.408,0.61,0.732,0.793
0.103,0.855,0.417,-0.793,-0.183,-0.671
0.114,0.845,0.412,2.014,1.038,0.244
0.104,0.867,0.416,0,0.732,0
0.113,0.865,0.409,-0.061,1.099,0
0.106,0.863,0.419,-0.977,0.549,0
0.107,0.847,0.414,1.343,0.366,0.427
0.109,0.853,0.413,0.183,0.671,-0.549
0.112,0.876,0.409,-1.099,1.038,-0.977
0.105,0.855,0.412,0.488,0.854,0.488
0.106,0.857,0.414,0.61,0.305,-0.061
0.109,0.862,0.413,1.038,0.671,0.488
0.11,0.861,0.415,0.488,0.488,0.366
0.107,0.86,0.405,0.427,0.977,0.854
0.103,0.862,0.412,-0.549,-0.732,-0.244
0.108,0.866,0.418,0.488,0,-0.122
0.113,0.862,0.41,-0.305,0.244,0.305
0.114,0.877,0.399,0.366,0.916,0.732
0.112,0.864,0.414,-0.732,0.305,-0.671
0.114,0.872,0.415,-0.244,1.038,0.183
0.106,0.861,0.411,0.427,0.793,0.671
0.104,0.855,0.417,0.732,0.916,0.488
0.115,0.864,0.408,0.549,0.366,0.305
0.111,0.867,0.405,0.305,1.282,0.732
0.113,0.864,0.41,-0.244,0.916,-0.366
0.107,0.86,0.405,0.854,1.587,0.61
0.106,0.845,0.406,1.099,1.038,-0.305
0.112,0.86,0.414,0.305,0.366,-0.061
0.117,0.877,0.408,0.244,1.221,0.549
0.104,0.862,0.413,0.122,0.549,0.427
0.106,0.865,0.406,0.183,1.038,0.916
0.107,0.866,0.413,0,0.427,0.183
0.107,0.858,0.407,0.427,1.099,0.366
0.104,0.857,0.408,0.549,0.549,0.427
0.112,0.864,0.407,0.854,0.427,0.122
,,,,,
0.094,1.1,0.372,-5.981,9.521,4.028
0.312,0.419,0.71,-31.982,-1.343,-8.24
-0.031,1.126,0.412,-71.594,-18.677,4.822
-0.216,1.362,-0.073,-48.645,2.747,25.757
0.2,0.584,0.316,56.824,-14.404,-0.122
0.135,0.912,0.338,-8.789,0.183,5.432
0.135,0.921,0.301,7.568,4.211,3.113
0.116,0.951,0.287,-1.892,4.333,-1.16
0.06,0.889,0.285,-0.122,1.648,0.122
0.089,0.896,0.324,0.061,1.16,-2.197
0.099,0.909,0.291,-2.869,0.427,-1.526
0.087,0.91,0.293,-1.709,2.563,-2.014
0.091,0.889,0.334,2.991,0.305,-0.305
0.089,0.897,0.32,1.648,0.366,0.916
0.104,0.902,0.314,-0.732,0.916,0.61
0.083,0.892,0.319,1.343,0.854,-0.671
0.084,0.901,0.323,-1.465,0.793,0
0.095,0.897,0.308,1.038,-0.122,-0.122
0.088,0.91,0.311,0.671,0.366,-0.061
0.095,0.893,0.302,-0.305,1.221,-0.061
0.097,0.9,0.32,0.916,0.061,-0.244
0.094,0.915,0.3,-2.136,1.221,-0.61
0.091,0.883,0.32,2.502,0.732,-0.549
0.087,0.876,0.32,2.136,0.305,-0.122
0.094,0.917,0.308,-1.587,1.16,-0.061
0.098,0.902,0.307,0.427,0.977,-0.061
0.1,0.926,0.304,-0.061,1.099,-0.61
0.097,0.89,0.314,2.014,0.549,-0.61
0.1,0.907,0.306,2.136,1.038,-0.732
0.101,0.9,0.314,-0.854,0.977,-0.732
0.096,0.911,0.307,1.953,0.488,-0.488
0.092,0.896,0.318,1.648,0.427,-0.305
0.096,0.916,0.3,-0.305,0.549,-0.549
0.095,0.906,0.32,2.319,0.305,-0.366
0.125,0.918,0.305,-0.366,1.831,0.427
0.095,0.883,0.309,0.122,0.366,0.305
0.089,0.9,0.324,1.099,-0.183,0.427
0.1,0.914,0.309,0.427,0.793,0.977
0.098,0.894,0.311,0.61,0.549,0.061
0.095,0.905,0.314,-0.244,0.427,0.183
0.098,0.894,0.314,1.282,0.671,0.793
0.098,0.906,0.314,1.465,0.793,0.305
0.1,0.902,0.313,1.16,0.977,-0.671
0.105,0.903,0.311,0.488,0.549,-0.427
0.091,0.911,0.32,0.122,0.916,0.366
0.099,0.9,0.321,1.038,0.793,0.61
0.108,0.922,0.312,-1.892,0.427,0.183
0.097,0.906,0.306,0.244,1.16,0.366
0.094,0.916,0.288,-2.686,0.916,0.427
0.096,0.896,0.325,0.61,0.061,0.61
0.099,0.902,0.314,2.014,1.404,0.671
0.095,0.913,0.305,-0.977,1.282,-0.122
0.095,0.905,0.313,0.488,0.854,0.671
0.098,0.912,0.318,2.075,0.183,0.549
0.097,0.915,0.302,0.427,1.343,0.122
0.101,0.892,0.319,1.648,0.549,0.061
0.095,0.91,0.318,-0.183,0.549,0.244
0.1,0.897,0.314,0.305,0.977,-0.061
0.102,0.912,0.311,0.122,0.488,-0.305
0.097,0.923,0.294,-2.258,2.319,-0.183
0.093,0.889,0.313,1.465,0.549,-0.183
0.099,0.897,0.323,1.831,0.122,0.122
0.1,0.901,0.311,-0.427,0.488,0.183
0.094,0.892,0.322,0.183,0.122,-0.793
,,,,,
0.133,0.916,0.367,-1.892,9.094,-1.404
-0.032,1.151,0.124,19.348,10.864,3.906
0.302,0.745,0.313,98.45,30.823,16.846
-0.034,0.931,0.524,-23.804,-21.301,-10.986
0.112,0.958,0.374,24.78,5.554,11.047
0.114,0.87,0.385,-5.249,7.385,-6.348
0.053,0.827,0.439,3.296,-6.348,5.31
0.099,0.858,0.437,3.113,0.549,-3.113
0.109,0.856,0.437,0,-2.441,0.61
0.08,0.84,0.43,1.892,-2.38,1.282
0.104,0.859,0.409,1.892,1.587,-2.93
0.097,0.845,0.416,0.977,-1.648,-0.183
0.095,0.868,0.421,-0.671,0.366,-1.282
0.087,0.86,0.411,0.549,0.671,0.183
0.089,0.855,0.416,-0.793,0.305,-1.099
0.096,0.867,0.417,0.854,1.221,0.183
0.091,0.848,0.424,0.549,1.343,-0.916
0.099,0.854,0.427,0.122,0.183,-0.793
0.093,0.863,0.416,0.732,0.854,0.61
0.098,0.859,0.431,-0.61,0.671,-0.488
0.097,0.857,0.421,0.61,0.977,0.549
0.095,0.852,0.416,0.305,0.671,0.244
0.096,0.858,0.425,-0.061,0.183,-0.488
0.1,0.855,0.419,-0.305,0.549,0.793
0.097,0.849,0.411,1.526,0,1.038
0.094,0.866,0.422,0.366,-0.488,0.061
0.096,0.852,0.419,0.549,0.122,-0.183
0.09,0.851,0.412,1.099,1.16,-0.183
0.093,0.86,0.417,0.183,0.183,-0.854
0.095,0.851,0.417,1.038,0.916,0.183
0.097,0.86,0.426,0.854,0.549,-0.122
0.108,0.864,0.419,0.61,0.671,-0.366
0.101,0.869,0.423,0.61,0.977,-0.549
0.1,0.862,0.417,0.305,1.282,-0.122
0.099,0.852,0.426,0.183,-0.061,0.122
0.092,0.84,0.417,0.916,0.671,0.183
0.089,0.844,0.427,-0.61,0.977,-0.854
0.096,0.851,0.423,2.136,0.305,-0.854
0.103,0.875,0.414,-0.732,1.221,-0.732
0.104,0.855,0.417,0.122,1.16,-0.122
0.104,0.851,0.416,0.671,1.343,0.061
0.106,0.858,0.412,0.061,0.244,-0.183
0.1,0.867,0.427,-1.587,0.183,-0.916
0.102,0.872,0.421,-1.16,0.671,-0.244
0.1,0.865,0.419,0.549,0.427,-0.366
0.105,0.862,0.419,-1.038,1.404,-0.366
0.097,0.859,0.417,-1.16,0.732,-0.183
0.097,0.859,0.407,-1.16,0.854,-0.305
0.111,0.875,0.412,0.305,0.732,-0.732
0.103,0.869,0.42,-0.305,0.244,-0.549
0.1,0.871,0.409,-0.488,0.61,0.427
0.107,0.865,0.415,0.366,0.488,0.61
0.109,0.872,0.415,0.732,0.549,0.61
0.1,0.857,0.42,0.122,0.61,0.61
0.101,0.852,0.407,0.305,0.977,0.977
0.104,0.864,0.412,0.244,0.061,0
0.102,0.859,0.414,0.122,0.916,0.366
0.109,0.861,0.407,1.038,1.16,0.793
0.097,0.868,0.408,-0.977,0.122,-0.061
0.105,0.868,0.412,0.366,0.977,0.122
0.106,0.875,0.411,-0.122,0.854,0
0.104,0.869,0.415,-0.427,0.977,0.427
0.103,0.853,0.412,0.61,0.244,0.854
0.096,0.859,0.416,0.305,0.854,0.793
,,,,,
0.073,1.244,0.183,-43.091,0.549,3.601
0.113,0.815,0.406,4.517,-11.719,-5.92
0.11,0.927,0.344,-5.066,-5.554,2.075
0.099,0.825,0.316,5.432,-1.221,0.061
0.102,0.902,0.278,-4.822,1.099,1.343
0.095,0.864,0.344,7.141,1.282,-0.793
0.103,0.919,0.296,-2.441,2.319,-1.099
0.097,0.884,0.323,-1.099,2.014,-1.16
0.081,0.922,0.317,-3.296,2.258,-0.366
0.094,0.883,0.327,0.916,1.282,0
0.09,0.915,0.335,-0.427,0.183,-0.122
0.064,0.897,0.336,-0.183,0.183,-0.061
0.098,0.891,0.325,2.502,-1.038,1.099
0.092,0.904,0.304,-1.343,0.549,0.244
0.098,0.902,0.328,0.793,0.122,-0.671
0.095,0.899,0.32,0.305,1.038,-0.488
0.097,0.895,0.306,-0.061,1.526,-1.16
0.094,0.916,0.314,1.16,0.732,-0.549
0.104,0.886,0.317,2.563,0.977,-0.488
0.104,0.927,0.303,-1.953,1.404,-0.549
0.089,0.899,0.329,2.808,0.366,-0.305
0.103,0.908,0.323,0.305,0.244,0.305
0.105,0.913,0.303,-1.038,0.977,0.183
0.098,0.891,0.339,1.709,-0.671,-1.16
0.101,0.899,0.324,2.502,1.099,-0.305
0.101,0.895,0.319,0.854,0.732,-0.61
0.098,0.914,0.325,0.916,0.427,-0.671
0.101,0.9,0.319,1.282,2.136,0.427
0.095,0.899,0.322,0.183,0.61,0.366
0.097,0.897,0.327,1.587,0.61,0.305
0.102,0.902,0.326,0.183,0.732,-0.244
0.098,0.911,0.325,0.366,0.916,-0.427
0.101,0.905,0.318,0.305,1.099,0.305
0.103,0.896,0.329,0.366,0.488,0.061
0.104,0.902,0.328,-1.099,0.854,-0.427
0.105,0.908,0.32,-1.587,0.488,0.305
0.098,0.898,0.319,0.244,0.366,-0.61
0.091,0.901,0.318,0.916,1.038,-1.038
0.117,0.892,0.317,0.916,1.16,-1.282
0.094,0.908,0.331,0.61,0,-0.366
0.099,0.903,0.323,1.221,0.61,-0.305
0.102,0.886,0.328,1.343,0.488,-0.122
0.11,0.912,0.317,0.244,0.854,0.793
0.108,0.895,0.323,2.563,1.221,0.366
0.106,0.888,0.321,0.427,0.793,0.549
0.1,0.9,0.315,-0.61,0.854,0.427
0.107,0.897,0.323,0.732,0.977,-0.488
0.107,0.893,0.331,1.709,0.427,-0.183
0.108,0.899,0.316,1.099,1.77,0.305
0.102,0.895,0.324,1.16,0.549,0.061
0.104,0.911,0.333,-0.549,1.099,0.488
0.105,0.898,0.318,1.648,1.587,0.916
0.111,0.911,0.316,-1.343,1.038,-0.916
0.1,0.9,0.325,-1.282,1.404,-0.244
0.107,0.881,0.329,1.77,0.977,0.427
0.113,0.897,0.329,2.747,0.61,0.549
0.104,0.9,0.326,0.488,1.038,0.183
0.116,0.885,0.321,1.465,1.709,-0.488
0.107,0.901,0.313,0.732,1.038,0.366
0.107,0.9,0.324,0.061,1.038,-0.793
0.101,0.9,0.326,0.122,1.221,-0.61
0.099,0.91,0.32,0.671,0.916,0
0.099,0.898,0.33,-0.244,0.183,0.061
0.109,0.903,0.324,0.854,0.122,0.305
,,,,,
0.205,0.745,0.384,2.625,-11.414,-6.653
0.142,0.821,0.402,26.733,-4.7,14.587
0.125,0.884,0.352,7.568,9.827,-3.601
0.083,0.884,0.459,-2.014,-1.892,-5.066
0.082,0.849,0.46,1.953,-2.93,1.16
0.142,0.86,0.429,0.183,-1.038,-0.427
0.083,0.833,0.429,6.958,-4.7,3.784
0.095,0.863,0.428,1.404,0.671,-3.235
0.104,0.827,0.425,0.732,-1.709,0.61
0.088,0.845,0.416,-1.099,-2.075,-1.953
0.095,0.874,0.422,-0.732,0.122,-1.709
0.087,0.849,0.418,-0.977,0.183,-0.549
0.096,0.861,0.414,0.854,0.488,-0.793
0.088,0.855,0.432,0.244,0.549,0
0.097,0.852,0.43,0.671,0.977,-0.671
0.09,0.844,0.423,0.793,0.61,0.793
0.094,0.848,0.425,1.16,-0.122,0.183
0.095,0.852,0.423,0.793,0.183,0.183
0.099,0.855,0.422,0.793,0.427,-0.61
0.102,0.859,0.431,-0.488,0.305,-0.427
0.099,0.866,0.417,0.488,0.488,0.305
0.102,0.852,0.421,0.183,0.793,-0.183
0.1,0.857,0.431,-0.244,0.305,-1.282
0.097,0.863,0.423,0.305,1.038,0.122
0.094,0.857,0.42,0.122,0.549,0.488
0.093,0.857,0.423,-0.488,0.549,-0.183
0.102,0.852,0.429,0.671,0.793,-0.061
0.092,0.858,0.423,-1.953,0.732,-0.061
0.102,0.855,0.422,-0.549,0.732,0.183
0.103,0.857,0.425,0.305,0.549,-0.366
0.101,0.868,0.424,-0.366,0.793,-0.183
0.096,0.852,0.421,0.488,0.793,0.549
0.1,0.86,0.421,-1.16,0.183,-0.793
0.1,0.86,0.42,0.061,0.61,-0.183
0.096,0.863,0.414,0.793,1.16,0.366
0.096,0.855,0.424,0.061,0.549,-0.061
0.098,0.86,0.424,-0.122,0.61,-0.122
0.099,0.852,0.415,0.671,0.977,0
0.105,0.862,0.426,0.916,0.977,-0.671
0.095,0.862,0.431,-0.366,0.732,-0.305
0.106,0.872,0.432,-1.343,0.061,-0.549
0.094,0.855,0.427,0.854,0.366,0.977
0.104,0.868,0.417,0.061,0.977,0.122
0.1,0.864,0.408,0.549,0.366,0.732
0.1,0.863,0.419,-1.038,0.61,0.183
0.105,0.854,0.421,0.122,0.854,0
0.098,0.846,0.413,1.587,0.916,0.244
0.097,0.871,0.411,-0.732,0.793,-0.61
0.105,0.876,0.414,-1.282,1.099,-0.549
0.106,0.875,0.426,-0.549,0.61,-0.244
0.103,0.871,0.419,-0.916,0.366,0.244
0.104,0.861,0.416,-0.061,0.427,0.61
0.101,0.848,0.411,0.732,0.671,0.549
0.095,0.857,0.413,0.061,0.732,0.061
0.101,0.849,0.415,1.709,0.916,-0.549
0.099,0.867,0.418,0.183,0.671,-0.061
0.108,0.869,0.419,-0.244,0.854,-0.305
0.111,0.869,0.418,-0.183,0.549,0
0.098,0.865,0.419,-0.366,1.038,0.366
0.097,0.867,0.417,-0.244,0.549,0.122
0.103,0.86,0.417,-0.061,0.244,-0.366
0.103,0.863,0.411,-0.244,0.732,0.244
0.096,0.853,0.415,-0.305,0.061,0.183
0.103,0.858,0.417,-0.366,0.793,-0.183
,,,,,
0.074,0.982,0.477,-42.419,-17.456,-3.357
-0.221,0.976,0.29,-42.969,-21.423,27.832
0.222,0.628,0.277,58.899,-19.409,-11.658
0.083,0.875,0.346,-5.005,-2.502,1.282
0.119,0.934,0.3,11.658,4.211,4.761
0.117,0.896,0.297,-0.61,5.005,2.808
0.066,0.878,0.321,0.916,-1.282,-0.549
0.119,0.884,0.302,3.174,1.892,0.122
0.102,0.926,0.292,-2.93,-0.305,-0.122
0.099,0.898,0.308,0.061,2.502,-1.465
0.099,0.919,0.311,1.099,2.014,0.305
0.109,0.929,0.3,-2.319,1.587,-0.061
0.093,0.89,0.329,4.028,0.122,0.854
0.093,0.904,0.315,-0.061,0.183,0.244
0.105,0.909,0.291,0.732,2.686,0.732
0.101,0.904,0.306,0.916,-0.305,-0.122
0.101,0.911,0.304,-1.038,0.61,0
0.099,0.89,0.308,0.977,0.977,-0.366
0.092,0.906,0.308,-0.122,0.366,0.183
0.094,0.898,0.304,1.343,0.854,-0.061
0.096,0.899,0.309,1.953,0.61,-0.366
0.099,0.908,0.306,1.282,0.854,-0.244
0.098,0.894,0.319,1.465,0.488,-0.366
0.107,0.907,0.31,0.916,0.793,-0.366
0.104,0.908,0.3,0.549,1.404,0.122
0.098,0.903,0.318,2.258,0.61,-0.122
0.106,0.915,0.296,0.854,1.221,-0.488
0.096,0.896,0.315,2.258,0.61,0.305
0.098,0.898,0.334,1.892,-0.366,-0.366
0.104,0.902,0.31,0.854,1.282,0
0.096,0.899,0.314,0.793,0.977,0.061
0.097,0.922,0.312,-0.366,0.122,0.122
0.102,0.904,0.308,-0.61,1.099,-0.244
0.099,0.892,0.323,1.831,0.427,-0.122
0.106,0.901,0.313,-0.305,0.061,0.183
0.103,0.895,0.321,0.977,0.305,-0.305
0.1,0.881,0.327,0.732,0.732,-0.61
0.107,0.908,0.313,1.587,0.366,-0.061
0.098,0.919,0.309,-0.671,0.916,0.793
0.101,0.89,0.315,1.892,0.977,-0.183
0.103,0.904,0.32,2.075,1.099,0.061
0.107,0.902,0.313,15.381,0.854,-0.549
0.101,0.916,0.306,-0.427,1.526,-0.061
0.099,0.887,0.331,0.488,0.366,0.244
0.107,0.899,0.323,2.747,0.366,0.244
0.107,0.926,0.311,-0.305,0.854,0.732
0.105,0.888,0.313,-0.977,1.038,0
0.096,0.891,0.323,1.038,0,-0.244
0.104,0.915,0.31,1.038,1.465,0.366
0.097,0.894,0.316,1.221,1.282,0.122
0.099,0.905,0.318,0.916,0.732,0
0.108,0.908,0.318,0.183,0.488,0.671
0.099,0.896,0.32,0.671,0.61,-0.366
0.107,0.89,0.316,2.747,0.671,-0.916
0.109,0.902,0.315,-0.977,1.099,0.061
0.098,0.903,0.319,1.465,0.793,0.488
0.106,0.903,0.313,1.892,1.221,0.244
0.108,0.908,0.318,-0.427,0.793,0.244
0.108,0.909,0.318,0.183,1.221,0.183
0.114,0.915,0.308,-1.099,1.709,0.488
0.099,0.888,0.316,-0.793,0.916,0.488
0.111,0.892,0.323,-1.099,1.16,-0.305
0.108,0.892,0.323,3.296,0.61,0.183
0.102,0.901,0.31,1.953,1.526,-0.122
,,,,,
-0.074,1.386,-0.024,100.342,39.734,8.484
0.905,-0.329,0.946,71.533,-14.893,-1.038
0.06,0.991,0.271,-10.071,-5.188,16.296
0.09,0.629,0.354,21.301,7.019,0.427
0.066,0.897,0.416,-2.197,-2.93,-13.855
0.074,0.861,0.466,-1.099,-2.258,2.563
0.111,0.881,0.423,0.061,0.854,-2.747
0.089,0.846,0.425,3.906,-3.174,3.845
0.1,0.858,0.431,0.305,-0.549,-0.488
0.103,0.873,0.402,-1.343,-1.77,0.183
0.096,0.85,0.409,-0.732,-0.916,-0.61
0.093,0.859,0.421,0,-0.183,-0.488
0.106,0.865,0.405,1.831,0.916,-0.183
0.1,0.876,0.413,-0.366,0.366,-1.16
0.098,0.855,0.419,-0.122,1.282,-0.366
0.102,0.863,0.414,1.465,1.526,-0.061
0.087,0.846,0.429,0.183,0.244,0.244
0.106,0.878,0.417,-0.366,0.305,-0.427
0.095,0.847,0.416,0.977,0.549,0.427
0.096,0.856,0.414,0.488,0.916,-0.183
0.107,0.866,0.414,-1.526,0.549,-1.16
0.1,0.865,0.421,0.549,0.549,-0.427
0.1,0.857,0.414,-1.892,1.221,0
0.102,0.859,0.412,-0.244,0.793,-0.793
0.095,0.868,0.423,-1.282,0.488,-1.16
0.102,0.855,0.406,-0.183,0.977,-1.465
0.104,0.861,0.409,1.343,1.16,-1.038
0.1,0.867,0.422,-0.183,0.488,-1.404
0.108,0.879,0.408,0.671,1.953,0.122
0.11,0.855,0.419,0.244,0.305,-0.671
0.1,0.848,0.414,1.526,0.916,0.122
0.111,0.855,0.4,1.587,1.587,0.305
0.111,0.84,0.417,-1.16,-0.793,-0.183
0.1,0.856,0.41,0.854,0.366,-0.122
0.107,0.856,0.412,-0.854,0.793,-1.282
0.096,0.863,0.422,-1.282,0.549,-0.732
0.103,0.872,0.407,0.488,1.404,-0.305
0.102,0.876,0.422,-0.916,1.16,-0.244
0.102,0.87,0.414,0.366,0.61,1.038
0.108,0.865,0.399,0.488,1.282,0.183
0.109,0.854,0.401,0.793,0.183,-0.122
0.111,0.864,0.4,-0.061,0.916,0.244
0.115,0.856,0.404,0.183,0.183,0.427
0.11,0.855,0.413,0.305,0.61,-0.183
0.113,0.859,0.407,0.244,0.488,0.061
0.109,0.856,0.421,0.854,0.977,-0.061
0.112,0.867,0.419,0.916,0.732,-0.732
0.106,0.864,0.414,-0.183,1.099,0.366
0.115,0.861,0.412,0.488,0.305,0.122
0.102,0.875,0.418,0.366,0.61,1.465
0.105,0.857,0.404,1.221,0.61,0.854
0.103,0.857,0.408,0.488,-0.061,0.427
0.106,0.865,0.409,0.61,0.61,0.061
0.105,0.859,0.409,0.549,0.549,0.244
0.104,0.859,0.402,-0.244,0.61,0.061
0.109,0.87,0.41,0.061,0.732,-0.244
0.108,0.863,0.407,0.488,1.465,0.244
0.109,0.86,0.415,0.183,0.671,0.061
0.106,0.856,0.415,0.732,0.732,0.549
0.114,0.862,0.41,0.61,1.099,0.183
0.108,0.863,0.408,0.549,0.305,0.061
0.105,0.856,0.407,0.61,1.404,-0.549
0.104,0.86,0.409,0.305,0.488,0.427
0.104,0.87,0.405,-0.732,0.488,-0.244
,,,,,
-0.261,1.298,0.017,-74.768,-15.991,2.563
0.258,1.047,0.159,22.217,5.371,9.277
0.053,0.865,0.379,12.085,-9.888,-0.305
0.094,0.871,0.288,-3.54,6.592,7.324
0.124,0.871,0.285,9.705,2.808,0.305
0.088,0.892,0.337,0.122,-0.244,2.625
0.127,0.911,0.277,5.31,3.357,0.305
0.092,0.863,0.306,2.563,-1.038,0.488
0.094,0.945,0.285,2.197,1.77,-0.305
0.098,0.878,0.325,2.93,-1.404,-0.977
0.11,0.926,0.302,-0.061,1.343,1.221
0.104,0.906,0.31,3.906,0.427,1.038
0.097,0.932,0.277,-2.075,-0.244,1.16
0.108,0.906,0.268,1.343,1.282,0.977
0.098,0.889,0.302,4.578,-0.671,-0.488
0.102,0.924,0.284,1.038,1.892,0
0.107,0.898,0.301,-0.671,0.488,-0.122
0.098,0.904,0.287,0,1.038,-0.244
0.101,0.889,0.299,3.662,0.977,-0.061
0.091,0.907,0.302,0,-0.488,-0.854
0.105,0.918,0.299,-0.244,1.16,-0.732
0.103,0.898,0.299,1.404,0.183,-0.183
0.097,0.917,0.295,-0.122,0.061,-0.854
0.105,0.92,0.294,-1.892,1.221,-1.038
0.097,0.913,0.3,1.404,-0.122,-0.366
0.102,0.909,0.294,-0.305,0.427,-0.427
0.107,0.907,0.287,-0.427,1.099,-0.061
0.102,0.907,0.301,2.625,0.305,-0.427
0.111,0.916,0.294,0.427,1.343,-0.671
0.101,0.907,0.297,1.526,0.854,0.427
0.098,0.897,0.295,0.183,-0.061,0.61
0.119,0.916,0.294,-0.244,1.16,0.183
0.098,0.912,0.301,1.709,0.671,-0.549
0.105,0.892,0.299,-0.549,1.221,-0.183
0.099,0.906,0.311,1.77,-0.183,0.061
0.107,0.914,0.3,1.343,0.916,-0.183
0.108,0.912,0.289,-0.244,0.732,0.366
0.096,0.911,0.298,1.465,-0.366,1.099
0.108,0.905,0.302,2.502,0.916,-0.488
0.107,0.909,0.303,-1.099,1.099,-0.793
0.104,0.898,0.299,0.61,1.099,-0.061
0.105,0.899,0.294,0.854,0.916,-0.183
0.108,0.911,0.307,0.793,0.61,-0.305
0.104,0.916,0.297,0.671,1.343,0.122
0.105,0.899,0.297,15.442,1.038,-0.671
0.108,0.915,0.298,-0.305,0.793,0.244
0.099,0.91,0.306,0.671,0.244,-15.564
0.115,0.906,0.307,1.343,0.916,-0.61
0.102,0.919,0.298,-0.793,0.916,0.427
0.107,0.9,0.307,0.183,0.61,-0.305
0.113,0.916,0.31,0.671,0.244,0.183
0.104,0.906,0.295,1.282,0.977,0.793
0.111,0.901,0.297,0.61,0.793,0
0.107,0.905,0.307,0.854,0.732,-0.183
0.112,0.911,0.303,-0.305,1.526,0.061
0.107,0.914,0.304,0.305,1.038,0.061
0.103,0.907,0.308,1.221,0.61,0.488
0.116,0.907,0.293,-0.549,0.854,0.61
0.111,0.903,0.307,0.793,0.549,-0.61
0.105,0.902,0.298,1.099,1.038,-0.305
0.115,0.898,0.302,-0.183,1.221,-0.977
0.112,0.906,0.302,0.427,1.343,0.244
0.104,0.911,0.304,0.732,1.16,0.122
0.108,0.901,0.299,0,1.099,0.305
,,,,,
0.323,0.644,0.618,5.188,-18.494,-5.981
0.063,0.913,0.338,6.042,-3.784,7.935
0.107,0.772,0.344,25.391,10.193,0.366
0.066,0.906,0.403,0.183,-4.822,-3.357
0.094,0.884,0.419,3.601,-1.343,0.671
0.133,0.904,0.435,0.183,0.549,-0.183
0.089,0.833,0.386,1.953,-3.723,4.639
0.11,0.839,0.403,3.54,1.282,-0.427
0.108,0.857,0.394,0.183,-2.747,0.671
0.099,0.869,0.379,0.305,-0.61,0.244
0.112,0.848,0.405,-0.549,0.244,-1.343
0.111,0.864,0.404,-1.038,-0.366,-0.732
0.116,0.874,0.393,0.549,1.038,0.061
0.116,0.868,0.405,-1.099,0.61,-1.16
0.104,0.877,0.398,-0.488,1.099,1.038
0.096,0.849,0.399,0.488,0.061,0.427
0.109,0.852,0.42,0.244,-0.549,0.427
0.118,0.87,0.393,0.366,1.16,0.671
0.115,0.864,0.398,0.061,0.732,-0.305
0.112,0.871,0.4,0.061,-0.122,0.549
0.114,0.863,0.4,0.244,0.732,-0.061
0.098,0.856,0.41,0,0.671,0
0.1,0.858,0.399,1.038,0.122,0.732
0.106,0.864,0.391,1.221,-0.183,-0.305
0.107,0.874,0.408,-0.305,0.793,-0.549
0.112,0.864,0.394,0.671,1.282,0.854
0.104,0.859,0.397,0.366,0.977,0.427
0.11,0.869,0.403,1.099,0.244,-0.183
0.111,0.872,0.401,0.671,0.366,0.427
0.112,0.864,0.4,0.854,0.977,-0.183
0.108,0.87,0.399,0.183,0.916,-0.305
0.109,0.869,0.402,0.366,0.793,0.305
0.108,0.872,0.397,0.244,0.671,0.244
0.111,0.876,0.399,0,0.732,0
0.102,0.854,0.398,1.465,0.977,0.916
0.106,0.86,0.397,1.465,0.061,-0.061
0.116,0.875,0.396,0.183,0.977,-0.366
0.11,0.866,0.399,0.977,0.488,0.183
0.106,0.864,0.404,-0.732,0.427,0.305
0.11,0.866,0.405,0.793,0.671,-0.488
0.109,0.874,0.396,0.427,0.977,0.061
0.106,0.868,0.396,0.366,0.977,-0.061
0.113,0.867,0.4,0.61,0.916,0.305
0.105,0.856,0.401,0.122,0.61,0.183
0.112,0.867,0.398,1.526,0.977,-0.732
0.108,0.865,0.406,0.854,0.854,-0.305
0.107,0.865,0.402,1.343,0.854,0.61
0.11,0.862,0.407,0,0.427,0.244
0.11,0.866,0.404,0.793,0.488,0.244
0.109,0.864,0.402,1.16,0.916,0.488
0.117,0.88,0.392,0.122,0.488,-0.122
0.114,0.874,0.396,-0.183,0.793,0
0.115,0.867,0.394,0.488,0.793,-0.122
0.105,0.86,0.397,0.549,0.854,0.916
0.107,0.858,0.399,0.427,0.305,0.183
0.109,0.865,0.407,0.977,0.549,-0.244
0.114,0.879,0.398,1.038,0.488,0.549
0.111,0.869,0.404,-0.366,0.977,0.183
0.115,0.88,0.402,-0.61,0.244,0
0.11,0.881,0.393,0.122,1.099,0.183
0.117,0.875,0.403,-0.183,0.671,-0.488
0.105,0.867,0.406,0.244,1.343,0.244
0.105,0.856,0.4,1.038,1.099,0.61
0.105,0.867,0.404,0.244,0.366,0.244
,,,,,
0.074,1.002,0.373,-45.41,-13.489,4.578
0.045,1.178,0.141,-34.668,5.066,11.597
0.116,0.823,0.392,20.691,-9.949,-2.38
0.071,0.84,0.378,-8.728,-3.479,5.066
0.107,0.932,0.26,-1.099,5.615,3.235
0.141,0.871,0.28,-1.77,-0.854,0.183
0.093,0.868,0.334,0.427,-0.183,-2.686
0.123,0.875,0.279,0.793,1.282,-0.732
0.096,0.866,0.343,2.625,0.916,-0.122
0.095,0.946,0.308,0.366,1.648,-0.549
0.118,0.892,0.304,1.465,3.052,-0.549
0.094,0.892,0.343,-1.648,-0.854,0.122
0.114,0.876,0.32,3.052,-0.183,-0.732
0.111,0.925,0.32,2.197,1.648,0.793
0.094,0.896,0.32,-2.625,-0.732,-0.671
0.11,0.883,0.321,2.747,1.221,-0.549
0.1,0.915,0.312,-2.869,1.465,-0.366
0.102,0.896,0.321,3.174,1.526,-0.61
0.103,0.905,0.322,-1.404,0.427,-0.305
0.095,0.907,0.32,-1.343,0.977,0.916
0.104,0.889,0.318,3.479,0.061,0.244
0.112,0.922,0.298,-0.244,1.16,0.488
0.1,0.877,0.329,2.319,0.671,-0.61
0.106,0.905,0.315,1.16,1.892,0.305
0.108,0.896,0.316,0.366,0.732,0.183
0.109,0.883,0.332,1.343,-0.244,-0.183
0.109,0.912,0.322,0.61,1.16,-0.305
0.099,0.897,0.32,-0.488,0.427,-0.549
0.1,0.905,0.318,-0.061,0.305,0.061
0.106,0.899,0.32,1.343,0.732,0.61
0.107,0.899,0.317,0.366,0.549,0.061
0.104,0.892,0.32,1.526,0.122,0.549
0.108,0.898,0.315,1.16,-0.061,-0.183
0.11,0.903,0.318,0.427,1.404,-0.061
0.105,0.895,0.324,2.197,0.916,-0.366
0.1,0.897,0.325,1.16,0.061,-0.366
0.106,0.894,0.32,2.686,0.854,-0.427
0.109,0.904,0.316,1.16,0.427,-0.183
0.109,0.895,0.319,0.366,1.16,-0.305
0.108,0.897,0.317,1.343,1.831,0.366
0.101,0.907,0.319,2.563,0.916,0.671
0.114,0.904,0.324,0.549,0.916,0.244
0.115,0.91,0.328,-0.061,1.587,0.244
0.101,0.884,0.324,0.671,1.038,0.732
0.112,0.891,0.325,0.549,0,-0.244
0.111,0.903,0.328,0.549,0.305,-0.244
0.106,0.9,0.323,0.183,1.099,-0.122
0.101,0.893,0.326,1.465,-0.122,-0.122
0.109,0.903,0.321,-0.366,0,-1.16
0.115,0.902,0.318,-1.343,1.77,-1.16
0.108,0.872,0.325,2.319,0.732,-0.61
0.112,0.89,0.328,2.319,0.427,-0.305
0.113,0.902,0.325,0.244,0.977,0.305
0.104,0.902,0.323,0.61,0.977,0.427
0.117,0.905,0.329,-0.366,0.793,-0.488
0.111,0.897,0.325,1.648,1.282,0.732
0.105,0.895,0.326,1.465,0.61,0.732
0.115,0.887,0.333,1.587,0.732,0.183
0.12,0.904,0.328,-0.122,0.977,0.122
0.104,0.915,0.312,-1.282,0.549,0.366
0.113,0.873,0.329,1.343,0.244,-0.183
0.112,0.9,0.331,1.343,0.793,-0.061
0.111,0.895,0.324,-0.916,1.038,-0.549
0.108,0.897,0.323,0.793,-0.122,0.671
,,,,,
0.51,0.501,0.541,2.075,-22.522,-11.841
0.086,0.96,0.388,10.986,-6.226,11.292
0.072,0.816,0.339,14.771,10.803,-0.427
0.061,0.912,0.437,-4.639,-4.028,-9.277
0.06,0.901,0.452,0.977,-2.502,2.075
0.129,0.87,0.414,-1.465,2.441,-1.709
0.088,0.84,0.407,5.005,-4.456,5.066
0.103,0.837,0.416,0.61,1.038,-2.136
0.105,0.852,0.399,2.258,-0.977,1.587
0.09,0.841,0.419,1.465,14.465,-0.793
0.109,0.876,0.406,0.916,1.282,-1.221
0.095,0.862,0.409,0.732,0.366,0.305
0.099,0.864,0.419,0,0.549,-1.587
0.095,0.88,0.416,0.793,1.404,1.221
0.096,0.867,0.425,-0.732,0.183,-0.427
0.103,0.853,0.426,0.427,0.488,0.671
0.099,0.861,0.4,1.526,0.671,0.488
0.1,0.853,0.419,-0.366,-0.305,-0.366
0.093,0.858,0.409,0.488,0.854,0.793
0.1,0.852,0.411,0.61,0.61,-0.488
0.093,0.876,0.42,-1.709,-0.366,-0.427
0.102,0.875,0.412,0.366,0.183,0.244
0.103,0.869,0.409,0.122,1.038,-0.061
0.094,0.854,0.416,-0.305,0.183,-0.061
0.102,0.862,0.404,2.319,0.916,0.061
0.102,0.857,0.415,1.526,0.244,0.427
0.102,0.853,0.409,0.427,0.549,0.977
0.105,0.862,0.407,-0.366,0.61,-0.671
0.094,0.853,0.425,0.122,0.61,-0.61
0.104,0.864,0.416,-0.244,0.793,0.061
0.098,0.857,0.41,0.061,0.183,0.427
0.102,0.852,0.42,0.488,0.183,-0.488
0.096,0.863,0.413,-0.183,0.427,0.366
0.089,0.855,0.405,0.854,1.282,-0.122
0.106,0.86,0.419,-0.122,0.122,-0.427
0.097,0.86,0.413,-0.488,0.61,0.305
0.094,0.846,0.395,0.244,1.221,0.427
0.1,0.853,0.422,0.061,-0.61,-1.16
0.104,0.87,0.408,0.244,0.793,0.793
0.101,0.865,0.402,0.671,0.854,0.244
0.103,0.859,0.421,0.122,0.183,-0.122
0.106,0.864,0.41,-0.122,0.916,0.671
0.095,0.857,0.409,0.793,0.366,0
0.104,0.864,0.414,0.61,0.732,-0.488
0.103,0.867,0.406,0.61,1.404,-15.442
0.099,0.86,0.41,0.732,1.099,-0.61
0.099,0.857,0.418,0.732,0.122,-0.183
0.103,0.87,0.413,0.366,1.038,0.671
0.1,0.86,0.416,0.183,0.732,-0.183
0.1,0.858,0.41,0.793,0.61,0.366
0.102,0.861,0.411,0.427,0.427,0.488
0.106,0.867,0.411,0.671,0.305,-0.244
0.104,0.863,0.412,0.122,1.038,0.671
0.099,0.863,0.41,0.427,0.427,0.549
0.099,0.86,0.413,0,0.732,-0.244
0.107,0.861,0.41,0.549,1.038,0.122
0.098,0.871,0.411,0.549,1.099,0.305
0.102,0.854,0.413,0.916,0.549,0.122
0.102,0.868,0.413,0.61,0.671,0.488
0.103,0.86,0.407,0.366,0.671,-0.244
0.115,0.876,0.412,0.916,0.671,-0.549
0.099,0.861,0.411,0.061,1.099,0.183
0.103,0.864,0.411,0.366,1.404,-0.061
0.107,0.861,0.413,-0.244,0.305,-0.183
,,,,,
0.222,1.273,0.134,-34.424,10.498,1.404
0.073,0.77,0.353,28.687,-16.296,-3.54
0.146,0.857,0.316,0,7.385,6.165
0.159,0.906,0.344,8.789,3.113,0.61
0.071,0.864,0.372,4.333,-0.305,4.639
0.121,0.945,0.283,-10.559,5.371,-1.038
0.095,0.885,0.327,0.488,-0.732,-0.183
0.088,0.91,0.324,-2.808,0,0.732
0.115,0.896,0.311,1.892,1.892,0.061
0.096,0.909,0.33,1.282,0.732,1.343
0.111,0.908,0.316,-0.061,1.709,0.671
0.104,0.892,0.336,1.343,0.854,1.648
0.099,0.889,0.333,-1.648,1.038,0.366
0.111,0.905,0.318,1.16,0.427,-0.061
0.104,0.896,0.318,-1.221,0.183,-0.122
0.1,0.897,0.318,0.122,2.197,-0.244
0.09,0.889,0.324,4.639,0.671,0.244
0.102,0.896,0.313,-1.343,1.465,-1.221
0.122,0.907,0.329,3.601,0.977,-2.258
0.101,0.904,0.332,0.366,1.343,-0.793
0.101,0.899,0.32,2.197,1.282,0
0.105,0.901,0.328,0.549,0.61,-1.16
0.108,0.915,0.329,-1.038,1.099,0.061
0.099,0.884,0.326,2.563,-15.442,0.305
0.118,0.894,0.332,0.305,-0.549,-1.343
0.125,0.899,0.318,0.61,1.038,-0.427
0.107,0.903,0.32,-1.282,0.122,0.122
0.107,0.899,0.329,-0.244,0.732,0.061
0.113,0.886,0.336,0.916,0,0.305
0.112,0.905,0.321,0.122,0.671,0.122
0.114,0.891,0.325,-0.854,0.244,-0.549
0.101,0.916,0.319,-0.977,1.099,0.732
0.099,0.89,0.328,1.892,0.732,0.183
0.108,0.892,0.324,0.061,0.549,0.427
0.112,0.914,0.322,-1.221,1.282,0.244
0.102,0.898,0.332,0.122,0.977,-0.061
0.109,0.891,0.33,0.732,0.732,0
0.107,0.903,0.327,1.038,0.793,0.305
0.111,0.891,0.325,1.831,0.732,-0.305
0.112,0.906,0.316,0.977,0.854,0.732
0.099,0.891,0.32,1.465,0.427,0.183
0.111,0.9,0.332,1.221,0.488,0
0.11,0.907,0.323,1.648,1.16,0.183
0.11,0.885,0.332,1.038,0.977,-0.61
0.112,0.891,0.336,-0.122,0.427,-0.061
0.109,0.892,0.331,0.732,0.793,-0.244
0.116,0.891,0.327,0.671,0.549,-1.099
0.106,0.88,0.328,2.563,0.671,-1.892
0.117,0.895,0.329,0.244,0.793,0.244
0.108,0.904,0.32,1.16,0.793,0.488
0.119,0.905,0.325,-2.38,0.732,0.122
0.104,0.892,0.333,0.366,0.366,0.854
0.112,0.898,0.317,2.319,0.977,0.427
0.115,0.894,0.328,-2.136,0.183,-0.244
0.109,0.909,0.322,-0.427,1.099,0.061
0.112,0.887,0.322,1.709,0.793,0.732
0.106,0.893,0.324,2.075,0.305,0
0.112,0.898,0.327,0.122,1.038,-0.366
0.114,0.899,0.321,1.16,1.099,0.671
0.115,0.892,0.32,2.258,1.099,0.061
0.11,0.894,0.331,-0.854,0.122,0.244
0.116,0.907,0.316,-1.16,1.221,0.427
0.118,0.887,0.326,1.282,0.61,0.061
0.109,0.886,0.332,1.099,0.427,-0.732
,,,,,
0.131,0.974,0.355,-20.325,12.756,5.127
-0.013,1.043,0.284,27.954,3.418,3.113
0.288,0.619,0.399,64.331,2.747,3.662
-0.031,1.124,0.473,-12.024,-13,-3.113
0.093,0.968,0.323,18.127,0.061,6.775
0.102,0.89,0.387,-4.578,3.052,-3.906
0.054,0.847,0.41,5.188,-6.531,3.418
0.107,0.884,0.379,3.052,-0.488,-0.793
0.094,0.882,0.392,0.916,-2.686,1.709
0.073,0.845,0.397,3.479,-3.54,1.099
0.113,0.875,0.38,-0.183,2.747,-0.61
0.095,0.87,0.399,0.244,-1.77,-0.427
0.09,0.863,0.386,1.709,0.488,-0.244
0.098,0.876,0.397,0.366,0.916,-0.549
0.09,0.867,0.411,0.732,-0.671,-0.305
0.066,0.857,0.395,1.343,1.16,0.366
0.092,0.863,0.402,1.16,-0.671,0.122
0.097,0.862,0.402,0.427,0.671,0.305
0.1,0.86,0.394,1.343,0.183,-0.488
0.101,0.879,0.396,-0.732,0.305,-0.549
0.093,0.871,0.398,0.977,1.221,0
0.093,0.869,0.393,1.282,1.038,-0.061
0.094,0.883,0.405,-0.488,0.427,0
0.099,0.878,0.393,0.183,1.526,0.793
0.096,0.875,0.403,0.244,0.671,0.183
0.094,0.871,0.389,-0.427,1.221,1.038
0.096,0.876,0.396,-0.488,0.732,-0.305
0.101,0.871,0.402,1.343,0.61,0.183
0.095,0.866,0.4,-0.305,0.793,0.305
0.094,0.867,0.408,-0.305,0.061,-0.488
0.099,0.875,0.398,0.61,0.793,0
0.09,0.862,0.402,0.671,0.305,-0.366
0.098,0.871,0.4,0,0.488,-0.244
0.087,0.872,0.398,0.854,0.366,0.977
0.098,0.868,0.399,0.366,0.732,-0.183
0.102,0.87,0.402,0.122,0.61,0.122
0.092,0.869,0.386,1.587,1.282,-0.244
0.098,0.863,0.399,0.366,1.77,-1.038
0.098,0.888,0.401,-2.563,0.61,-0.671
0.098,0.853,0.397,1.831,0.305,-0.244
0.1,0.872,0.406,0,0.671,-1.099
0.098,0.875,0.402,0.671,0.732,0.305
0.091,0.866,0.39,0.977,1.038,0.61
0.098,0.879,0.402,-0.366,0.244,-0.244
0.09,0.878,0.405,-0.122,0.732,1.343
0.097,0.871,0.386,1.221,0.732,1.648
0.097,0.868,0.393,0.427,0,0.916
0.106,0.872,0.394,0.732,0.793,0.793
0.104,0.866,0.392,0.488,0.732,0.427
0.092,0.865,0.395,1.038,1.099,-0.183
0.099,0.868,0.404,0.122,0.61,-0.305
0.096,0.871,0.401,0.305,1.099,0.549
0.096,0.869,0.395,0.793,0.977,-0.061
0.096,0.871,0.401,0.427,0.854,-0.671
0.088,0.871,0.394,0.549,0.916,0.488
0.098,0.866,0.389,0.549,1.038,0.061
0.096,0.862,0.395,0.549,0.427,0.671
0.1,0.87,0.402,0.671,0.977,0.366
0.095,0.868,0.401,0.977,1.709,0.549
0.094,0.868,0.396,-0.183,0.854,-0.305
0.099,0.87,0.404,-0.061,1.099,-0.305
0.095,0.875,0.403,0.732,0.732,0.427
0.094,0.863,0.399,0.244,0.305,0.305
0.099,0.873,0.402,-1.038,0.488,0.366
,,,,,
0.34,0.615,0.539,-27.1,-16.235,-9.216
-0.041,1.168,0.42,-51.147,-12.268,5.371
0.035,1.368,-0.036,-48.401,12.573,18.555
-0.066,0.62,0.442,24.475,-17.639,-3.418
0.07,0.983,0.286,-9.583,8.972,8.972
0.091,0.799,0.324,14.038,2.38,4.822
0.044,0.965,0.304,-10.254,-0.977,3.235
0.078,0.856,0.318,8.118,2.502,-0.305
0.091,0.945,0.276,-6.714,1.221,1.953
0.078,0.88,0.327,2.808,0.793,0.977
0.077,0.922,0.306,0.305,-0.122,-0.977
0.093,0.904,0.303,0.122,2.319,-1.343
0.089,0.902,0.321,4.395,0.488,-0.977
0.084,0.93,0.296,-4.333,1.221,-0.122
0.093,0.897,0.298,1.709,2.808,-0.061
0.076,0.91,0.316,0.854,0,-0.488
0.08,0.925,0.297,-2.38,1.038,0.61
0.092,0.896,0.301,2.747,1.953,-0.366
0.079,0.903,0.316,1.221,1.221,-0.305
0.086,0.902,0.296,1.709,0.549,-0.183
0.092,0.912,0.316,-0.732,0.61,-0.671
0.082,0.899,0.309,3.296,1.099,-0.061
0.089,0.922,0.286,-2.197,2.136,-0.244
0.081,0.906,0.315,0.977,1.16,0.366
0.075,0.916,0.315,0.427,0.61,0.488
0.096,0.903,0.309,0,1.343,0.366
0.085,0.916,0.295,1.16,0.977,0.305
0.086,0.907,0.312,1.404,1.465,-0.61
0.099,0.91,0.301,-0.793,1.892,-0.549
0.079,0.901,0.315,0.977,1.526,0.854
0.083,0.894,0.327,3.052,0.61,0.671
0.101,0.919,0.306,1.16,1.648,0.122
0.083,0.91,0.3,0.183,1.099,0.366
0.083,0.909,0.287,-0.183,0.427,0.244
0.099,0.908,0.315,1.16,0.427,-0.488
0.078,0.915,0.313,0.061,0.854,-0.122
0.095,0.88,0.305,0.183,0.977,-1.648
0.093,0.909,0.316,3.418,-0.793,-1.099
0.092,0.917,0.313,0.183,0.854,-0.244
0.089,0.911,0.305,0.549,0.61,0.366
0.082,0.914,0.304,0.366,0.549,0
0.09,0.902,0.315,3.54,1.526,-0.061
0.099,0.883,0.326,5.92,-0.183,0.183
0.092,0.909,0.308,-0.427,1.343,0.122
0.088,0.888,0.319,1.953,1.343,0.061
0.083,0.902,0.327,2.319,0.854,-0.061
0.099,0.915,0.319,-1.099,0.671,0.732
0.092,0.902,0.32,1.282,0.61,0.427
0.091,0.907,0.333,1.77,0.122,0.061
0.093,0.897,0.314,-0.183,1.038,0.671
0.079,0.935,0.301,-2.686,0.427,0.488
0.093,0.9,0.327,-0.488,0.671,-0.122
0.093,0.89,0.322,3.418,-0.732,0.549
0.086,0.9,0.316,1.709,0.793,0.244
0.094,0.897,0.318,-0.122,0.183,-0.122
0.097,0.911,0.317,0.793,1.221,0.366
0.085,0.9,0.319,1.282,1.038,0.732
0.089,0.891,0.325,2.014,0.427,0.427
0.092,0.903,0.318,0.671,0.732,0.183
0.094,0.895,0.323,0.977,0.183,0.061
0.098,0.924,0.312,1.16,1.709,-0.732
0.084,0.908,0.314,-1.038,0.854,0.244
0.086,0.905,0.329,2.075,0.183,0.366
0.1,0.909,0.31,0,1.465,0.427
,,,,,
0.108,0.983,0.415,5.249,-12.878,0.427
0.123,0.986,0.355,3.845,-4.822,12.878
0.101,0.878,0.374,-3.601,3.906,-4.211
0.059,0.88,0.428,3.906,-4.822,-0.916
0.076,0.884,0.39,2.869,-0.793,1.404
0.11,0.863,0.391,-0.183,-0.061,-0.732
0.063,0.867,0.413,1.587,-3.845,2.625
0.096,0.864,0.387,1.831,1.099,-1.648
0.081,0.881,0.409,-1.038,-1.709,-1.709
0.079,0.851,0.409,2.441,-0.427,-0.732
0.087,0.878,0.396,0.305,1.526,-0.793
0.074,0.88,0.405,0.427,0.183,-0.183
0.08,0.87,0.396,2.136,1.404,0.427
0.08,0.872,0.402,0.793,0.916,-0.793
0.084,0.883,0.417,0.854,1.16,-1.465
0.088,0.873,0.398,1.892,1.221,1.038
0.082,0.861,0.408,0.244,0.549,0.183
0.087,0.86,0.412,0.854,0.732,-0.244
0.089,0.879,0.408,1.099,1.282,0
0.077,0.866,0.399,0.122,1.099,0.732
0.078,0.861,0.405,1.465,0.549,-0.549
0.082,0.869,0.41,0.244,0.977,0.366
0.079,0.866,0.411,0.122,1.526,0.732
0.085,0.876,0.402,1.099,0.549,0.916
0.083,0.869,0.409,-0.061,0.488,0.305
0.088,0.869,0.403,-0.427,1.221,0.366
0.077,0.857,0.406,1.526,0.61,0.488
0.084,0.868,0.406,1.038,0.61,-0.061
0.078,0.866,0.407,1.099,0.549,0.671
0.084,0.871,0.405,0.061,1.77,0.244
0.087,0.861,0.41,-0.244,1.526,-0.488
0.079,0.868,0.406,1.77,1.221,0.732
0.085,0.871,0.401,0.977,0.977,0
0.09,0.875,0.415,-0.732,0.854,0
0.09,0.892,0.412,-0.793,0.61,0.366
0.082,0.871,0.406,-0.366,0.61,0.549
0.092,0.863,0.411,-0.122,0.427,-0.305
0.081,0.864,0.414,0.183,0.549,-0.061
0.077,0.861,0.398,0.61,1.038,0
0.07,0.856,0.404,0.916,-0.61,0.427
0.077,0.873,0.407,0.671,0.61,-0.183
0.087,0.878,0.397,1.099,1.099,-0.244
0.083,0.887,0.407,-1.343,1.404,0.366
0.09,0.873,0.415,-0.122,0.488,0.427
0.084,0.86,0.405,1.282,0.793,0.854
0.085,0.861,0.402,1.465,1.099,-15.564
0.087,0.863,0.415,0.916,0.61,-1.282
0.084,0.873,0.405,0.61,0.916,0.305
0.081,0.862,0.405,0.854,0.549,0.061
0.095,0.88,0.414,-1.099,0.061,-0.61
0.082,0.859,0.412,0.244,0.977,0.305
0.075,0.868,0.395,0.916,0.916,0.61
0.081,0.875,0.399,0.488,-0.061,0.061
0.088,0.874,0.411,0.244,0.427,0.122
0.079,0.869,0.411,0.305,0.244,1.16
0.077,0.856,0.402,0,0.671,0.366
0.088,0.873,0.409,0.244,0.366,-0.366
0.084,0.879,0.404,1.16,0.671,0.671
0.081,0.867,0.397,0.916,1.404,0.549
0.078,0.863,0.409,0.305,0.427,0.122
0.086,0.875,0.407,1.465,0.488,1.038
0.082,0.867,0.399,0.427,1.038,0.244
0.092,0.871,0.408,0.732,0.916,-0.854
0.08,0.884,0.399,3.662,4.272,1.282
,,,,,
0.019,1.267,0.231,-59.021,0.61,-3.906
0.221,1.007,0.218,6.653,7.08,14.648
0.024,0.868,0.333,-3.54,-7.629,10.193
0.104,0.948,0.297,0.427,5.127,5.798
0.101,0.844,0.33,1.587,-0.122,1.282
0.077,0.883,0.307,2.014,0.793,0.244
0.088,0.925,0.269,-4.089,4.7,-3.052
0.053,0.913,0.302,0.427,-0.366,-0.916
0.058,0.914,0.297,0.977,1.526,-0.854
0.068,0.927,0.282,0.061,1.648,-0.732
0.069,0.926,0.299,0.305,0.427,0.366
0.075,0.925,0.29,0.183,0.916,1.77
0.077,0.915,0.3,-0.122,0.854,0.488
0.07,0.914,0.301,-0.793,-0.061,0.549
0.082,0.904,0.283,0.488,1.221,-0.366
0.068,0.912,0.303,1.587,0.366,-1.099
0.076,0.911,0.292,-0.671,1.343,-1.221
0.082,0.899,0.29,2.014,0.793,-1.77
0.076,0.91,0.296,0.671,0.977,-1.587
0.084,0.934,0.282,2.136,2.93,-1.77
0.073,0.907,0.304,1.16,1.099,-1.831
