aX,aY,aZ,gX,gY,gZ
0.835,-1.088,0.701,-89.844,84.229,77.942
0.908,-1.124,0.700,-104.736,98.083,89.050
1.016,-1.153,0.695,-120.789,111.938,105.469
1.133,-1.133,0.675,-135.864,121.704,125.061
1.239,-1.120,0.655,-144.409,122.498,139.954
1.341,-1.127,0.652,-144.775,117.188,147.217
1.440,-1.140,0.643,-138.184,110.596,151.489
1.541,-1.212,0.597,-124.512,106.262,144.531
1.533,-1.388,0.491,-103.455,109.985,120.239
1.400,-1.638,0.265,-88.562,130.127,84.900
1.198,-1.835,-0.036,-97.473,166.382,50.415
0.981,-2.058,-0.337,-122.986,218.506,24.780
0.773,-2.303,-0.580,-163.940,275.085,1.587
0.494,-2.454,-0.729,-211.121,328.125,-20.813
0.175,-2.399,-0.761,-262.390,371.399,-34.119
-0.151,-2.185,-0.659,-309.204,408.081,-31.982
-0.457,-1.892,-0.498,-336.914,435.669,-12.329
-0.729,-1.483,-0.373,-343.201,455.444,26.550
-1.000,-0.967,-0.355,-331.238,471.680,80.811
-1.113,-0.320,-0.559,-304.871,486.389,150.940
-1.005,0.590,-0.708,-281.982,484.619,228.516
-0.889,1.668,-1.258,-208.374,436.401,285.034
-0.373,2.561,-1.714,-120.117,371.460,314.270
0.199,3.161,-1.884,-66.650,272.217,311.035
0.548,3.414,-1.872,-18.738,172.668,276.855
0.682,3.306,-1.713,21.118,105.713,225.830
0.929,3.017,-1.332,32.593,69.275,182.922
1.087,2.568,-0.745,26.001,41.931,158.813
1.068,2.156,-0.165,23.071,4.700,138.794
0.846,1.739,0.268,26.978,-37.354,106.750
0.678,1.340,0.581,23.376,-75.928,74.768
0.725,1.087,0.815,12.695,-95.154,61.462
0.821,1.028,0.859,18.005,-88.867,58.167
0.967,1.047,0.658,39.429,-57.495,52.368
1.032,1.027,0.312,66.528,-20.264,38.696
0.982,0.984,-0.085,86.304,2.014,14.343
0.937,0.899,-0.279,92.773,0.488,-13.123
0.778,0.800,-0.384,97.046,-16.357,-37.964
0.542,0.665,-0.444,94.116,-37.659,-55.054
0.448,0.554,-0.421,77.820,-52.246,-54.443
0.482,0.556,-0.298,55.664,-61.646,-39.307
0.547,0.588,-0.146,39.429,-66.772,-30.334
0.595,0.585,-0.002,31.799,-69.397,-31.555
0.650,0.593,0.108,29.907,-73.303,-34.607
0.746,0.633,0.179,34.546,-80.383,-35.889
0.850,0.729,0.198,43.884,-90.820,-36.865
0.952,0.829,0.172,52.490,-101.807,-40.344
1.030,0.920,0.131,59.204,-109.131,-45.959
1.094,1.005,0.068,65.002,-114.258,-54.749
1.122,1.074,0.026,70.496,-117.615,-66.711
1.126,1.119,0.002,75.073,-120.544,-79.712
1.108,1.148,0.013,79.041,-126.038,-91.919
1.060,1.131,0.048,85.999,-135.376,-103.088
0.999,1.062,0.104,96.924,-147.278,-113.770
0.933,0.974,0.171,108.276,-158.081,-124.634
0.826,0.882,0.223,119.080,-169.800,-133.484
0.760,0.735,0.255,130.920,-177.185,-135.376
0.753,0.619,0.265,140.503,-176.331,-129.761
0.762,0.538,0.233,145.630,-168.823,-124.084
0.759,0.460,0.187,146.851,-154.907,-122.437
0.760,0.393,0.139,143.250,-136.475,-123.413
0.762,0.307,0.089,138.123,-118.591,-125.183
0.748,0.174,0.042,132.507,-104.797,-127.441
0.743,0.028,0.032,129.761,-96.436,-130.005
0.710,-0.078,0.034,129.272,-93.140,-131.287
0.678,-0.172,0.056,125.549,-93.872,-130.066
0.641,-0.267,0.102,121.582,-97.473,-127.075
0.613,-0.310,0.137,116.394,-101.013,-121.887
0.583,-0.342,0.158,111.084,-102.783,-115.723
0.569,-0.395,0.198,105.408,-102.478,-109.985
0.582,-0.411,0.236,100.586,-100.342,-104.370
0.625,-0.390,0.249,95.764,-97.351,-99.060
0.686,-0.400,0.255,91.187,-93.506,-94.910
0.738,-0.440,0.246,88.013,-88.501,-94.177
0.771,-0.460,0.239,84.106,-81.848,-96.863
0.797,-0.507,0.230,79.346,-74.036,-101.257
0.773,-0.547,0.214,72.693,-64.758,-105.042
0.743,-0.561,0.206,64.392,-56.091,-104.248
0.722,-0.585,0.215,55.359,-51.208,-98.206
0.710,-0.583,0.238,49.744,-54.077,-90.515
0.712,-0.562,0.276,49.011,-64.453,-84.290
0.706,-0.564,0.318,51.819,-80.933,-81.726
0.680,-0.595,0.340,57.739,-98.999,-83.130
0.673,-0.661,0.409,65.247,-114.319,-89.050
0.570,-0.720,0.385,76.172,-120.544,-91.675
0.531,-0.787,0.394,70.251,-117.859,-89.233
0.513,-0.778,0.384,58.594,-109.131,-78.857
0.524,-0.776,0.394,47.180,-98.267,-67.444
0.525,-0.745,0.406,38.696,-87.891,-60.608
0.528,-0.683,0.420,33.325,-78.735,-58.044
0.515,-0.675,0.435,30.029,-72.693,-60.242
0.471,-0.684,0.426,28.687,-66.589,-62.317
0.434,-0.748,0.425,26.123,-60.547,-59.570
0.431,-0.774,0.417,22.034,-55.054,-50.781
0.437,-0.754,0.408,17.517,-52.002,-41.565
0.446,-0.742,0.403,14.160,-49.622,-36.072
0.449,-0.761,0.396,11.536,-47.546,-32.837
0.449,-0.787,0.400,8.240,-43.884,-29.053
0.440,-0.788,0.411,4.456,-37.659,-23.682
0.479,-0.778,0.423,-2.563,-31.860,-22.034
0.506,-0.756,0.444,-7.874,-27.161,-22.278
0.528,-0.770,0.474,-11.719,-23.682,-25.208
0.539,-0.801,0.511,-14.282,-20.813,-27.466
0.538,-0.823,0.549,-15.076,-18.921,-25.513
0.557,-0.832,0.575,-14.893,-18.250,-21.545
0.592,-0.808,0.587,-12.573,-18.433,-17.395
0.621,-0.799,0.601,-10.803,-19.836,-16.235
0.614,-0.825,0.612,-9.583,-19.714,-18.127
0.599,-0.842,0.647,-10.071,-16.052,-19.775
0.598,-0.866,0.702,-11.292,-11.963,-19.287
0.582,-0.828,0.685,-11.169,-8.118,-16.785
0.588,-0.840,0.688,-8.484,-7.202,-14.771
0.576,-0.832,0.689,-5.859,-7.141,-12.085
0.570,-0.815,0.693,-4.761,-5.920,-10.742
0.556,-0.811,0.701,-3.723,-5.737,-10.559
0.548,-0.795,0.716,-2.258,-7.690,-9.155
0.545,-0.779,0.734,-0.305,-9.705,-7.263
0.540,-0.761,0.753,2.075,-9.827,-5.737
0.542,-0.732,0.757,4.395,-7.568,-4.456
0.638,-1.280,0.635,-93.140,154.907,128.601
0.700,-1.260,0.598,-100.830,162.781,151.489
0.764,-1.243,0.542,-104.736,165.466,173.279
0.851,-1.195,0.480,-107.056,166.321,195.557
1.001,-1.144,0.444,-106.018,163.513,212.524
1.185,-1.120,0.427,-96.130,155.396,214.600
1.335,-1.145,0.351,-74.951,143.677,201.965
1.431,-1.244,0.273,-50.476,129.456,170.715
1.409,-1.325,0.092,-36.865,120.789,132.019
1.385,-1.357,-0.097,-42.480,122.803,99.365
1.296,-1.371,-0.227,-63.782,130.066,74.768
1.199,-1.407,-0.274,-88.440,141.418,55.725
1.074,-1.428,-0.304,-110.046,153.687,40.710
0.959,-1.481,-0.330,-127.502,164.062,30.518
0.808,-1.540,-0.373,-137.451,174.133,30.457
0.621,-1.555,-0.441,-147.827,182.678,40.710
0.386,-1.519,-0.566,-159.790,195.251,60.425
0.152,-1.505,-0.627,-169.189,211.060,85.022
-0.164,-1.396,-0.811,-179.321,226.318,110.352
-0.326,-1.201,-0.844,-203.125,231.628,131.470
-0.579,-0.719,-0.936,-206.787,234.253,152.344
-0.712,-0.115,-1.020,-206.726,236.511,169.006
-0.796,0.688,-1.002,-203.491,244.263,179.443
-0.672,1.694,-1.002,-197.815,260.315,187.622
-0.678,2.681,-0.920,-176.819,269.897,183.533
-0.427,3.711,-0.875,-151.733,264.038,183.350
0.254,4.000,-0.626,-140.198,237.854,201.416
0.960,3.978,-0.268,-121.033,198.242,231.628
1.777,3.487,0.271,-81.848,130.432,256.958
2.173,2.808,0.929,-22.949,11.902,236.145
2.022,2.114,1.408,38.696,-126.038,154.907
1.631,1.493,1.760,69.092,-225.037,66.162
1.167,1.104,1.783,79.285,-237.488,5.371
0.841,0.930,1.399,84.473,-156.616,-26.062
0.619,0.876,0.750,83.374,-25.757,-37.231
0.441,0.758,0.038,76.782,98.938,-39.673
0.290,0.588,-0.476,61.768,162.537,-46.509
0.099,0.463,-0.698,45.959,138.855,-54.077
0.088,0.385,-0.658,37.048,60.852,-49.988
0.202,0.391,-0.489,35.400,-23.437,-40.161
0.317,0.396,-0.270,38.269,-83.313,-36.072
0.459,0.430,-0.066,39.978,-112.427,-34.729
0.698,0.534,0.182,38.330,-120.239,-31.799
0.900,0.713,0.308,42.114,-115.417,-32.166
1.079,0.861,0.365,47.424,-107.300,-41.626
1.175,0.954,0.355,52.856,-104.980,-58.655
1.208,0.968,0.345,56.519,-111.023,-77.393
1.200,0.967,0.352,60.974,-123.108,-93.079
1.177,0.997,0.363,67.749,-136.414,-104.126
1.128,1.002,0.361,76.355,-147.339,-111.389
1.021,0.938,0.336,87.341,-152.161,-114.563
0.950,0.867,0.281,101.501,-147.156,-112.793
0.909,0.746,0.224,115.356,-134.277,-110.840
0.864,0.621,0.140,123.169,-119.629,-112.793
0.846,0.499,0.088,122.131,-101.990,-114.136
0.829,0.411,0.077,116.028,-85.876,-112.427
0.803,0.296,0.070,110.474,-76.233,-112.366
0.776,0.163,0.081,104.431,-72.266,-113.525
0.740,0.046,0.098,97.046,-71.960,-113.037
0.730,-0.045,0.113,93.140,-70.801,-108.948
0.760,-0.110,0.113,91.064,-67.505,-102.905
0.814,-0.153,0.102,90.149,-62.622,-96.069
0.870,-0.177,0.074,90.759,-58.655,-90.698
0.891,-0.205,0.049,90.454,-56.396,-87.585
0.880,-0.249,0.035,88.928,-55.542,-86.731
0.845,-0.313,0.032,85.083,-55.847,-86.853
0.808,-0.372,0.058,78.918,-57.190,-86.670
0.766,-0.401,0.104,72.449,-60.120,-85.266
0.729,-0.437,0.164,67.200,-65.369,-83.740
0.700,-0.452,0.210,61.951,-72.021,-81.970
0.682,-0.472,0.262,56.213,-77.393,-79.346
0.680,-0.498,0.303,51.575,-78.125,-76.233
0.697,-0.529,0.347,49.500,-74.463,-73.059
0.723,-0.506,0.365,50.903,-68.848,-70.618
0.750,-0.464,0.363,53.528,-64.087,-70.862
0.736,-0.474,0.366,54.626,-61.401,-72.388
0.720,-0.475,0.364,53.467,-60.486,-71.228
0.700,-0.486,0.380,51.147,-61.340,-67.505
0.685,-0.496,0.397,49.805,-64.453,-62.317
0.674,-0.506,0.401,51.025,-68.359,-59.082
0.680,-0.508,0.410,53.223,-69.397,-57.739
0.669,-0.516,0.424,55.359,-67.749,-60.852
0.650,-0.550,0.420,58.838,-62.439,-64.636
0.636,-0.549,0.402,59.021,-57.251,-64.026
0.643,-0.540,0.392,55.237,-56.702,-61.401
0.629,-0.540,0.395,52.246,-60.547,-59.143
0.620,-0.537,0.405,48.706,-66.650,-57.434
0.646,-0.556,0.418,44.861,-71.777,-57.922
0.588,-0.559,0.416,43.457,-71.533,-55.115
0.594,-0.629,0.434,33.691,-68.481,-55.969
0.550,-0.679,0.429,26.672,-61.218,-55.725
0.539,-0.680,0.439,23.071,-53.345,-50.781
0.539,-0.693,0.485,21.301,-47.363,-45.959
0.558,-0.703,0.501,22.766,-43.152,-43.640
0.556,-0.723,0.505,24.170,-39.795,-41.809
0.561,-0.737,0.513,22.583,-36.255,-37.292
0.578,-0.720,0.509,18.982,-31.860,-30.884
0.616,-0.677,0.497,15.808,-27.466,-27.100
0.629,-0.654,0.489,13.367,-23.682,-27.710
0.635,-0.681,0.480,10.986,-21.729,-29.358
0.633,-0.713,0.486,7.996,-21.729,-28.809
0.633,-0.738,0.484,6.165,-22.827,-26.001
0.662,-0.728,0.473,4.883,-24.597,-22.583
0.659,-0.732,0.471,4.700,-26.306,-21.912
0.645,-0.762,0.457,5.310,-26.001,-23.743
0.621,-0.793,0.448,5.005,-24.719,-23.621
0.607,-0.816,0.436,2.258,-22.095,-20.630
0.620,-0.803,0.445,-1.770,-20.386,-16.235
0.640,-0.775,0.464,-4.944,-21.118,-14.099
0.652,-0.788,0.485,-7.141,-24.292,-15.381
0.650,-0.799,0.509,-8.545,-27.893,-17.151
0.645,-0.800,0.536,-8.667,-31.311,-17.151
0.641,-0.810,0.573,-8.301,-32.471,-16.479
0.628,-0.815,0.607,-7.324,-31.128,-15.076
0.637,-0.797,0.616,-6.348,-27.710,-12.451
0.618,-0.805,0.628,-4.822,-22.949,-10.437
0.611,-0.771,0.622,-3.662,-16.357,-8.728
0.601,-0.783,0.621,-1.343,-11.230,-8.118
0.596,-0.778,0.609,1.343,-6.165,-6.287
1.117,-0.979,0.472,-94.238,84.045,169.617
1.232,-1.012,0.495,-85.205,78.186,154.907
1.307,-1.084,0.507,-75.256,72.632,128.906
1.349,-1.177,0.481,-67.627,74.829,98.389
1.320,-1.250,0.420,-65.674,88.562,70.068
1.299,-1.331,0.345,-71.838,113.708,47.485
1.265,-1.407,0.260,-83.862,144.470,28.442
1.178,-1.512,0.155,-98.511,174.622,9.521
1.001,-1.631,0.016,-117.126,202.148,-7.202
0.898,-1.768,-0.060,-141.541,228.882,-15.564
0.725,-1.853,-0.138,-165.405,250.488,-15.381
0.391,-1.867,-0.232,-191.589,264.221,-10.193
-0.004,-1.922,-0.380,-209.900,272.888,0.122
-0.375,-1.888,-0.519,-216.003,284.241,23.621
-0.689,-1.599,-0.586,-218.201,289.429,62.500
-0.972,-1.000,-0.601,-214.172,286.743,117.432
-1.167,-0.160,-0.592,-201.599,280.579,187.561
-1.086,0.963,-0.689,-173.096,273.315,259.338
-0.659,2.330,-1.053,-131.409,253.357,308.899
-0.363,3.340,-1.228,-89.111,192.749,307.983
-0.472,3.827,-1.288,-69.641,118.225,276.001
-0.005,3.918,-0.973,-83.984,84.412,272.339
0.708,3.875,-0.436,-89.233,76.294,298.401
1.235,3.489,0.057,-59.448,58.594,286.682
1.574,2.879,0.417,-16.968,28.931,242.798
1.667,2.270,0.730,18.860,-20.447,185.486
1.590,1.758,1.097,45.654,-89.478,121.033
1.450,1.337,1.441,68.665,-155.090,56.458
1.128,1.063,1.593,82.153,-179.565,-0.549
0.918,0.905,1.478,85.999,-148.682,-38.635
0.773,0.888,1.117,95.642,-72.144,-53.772
0.642,0.915,0.632,101.379,11.108,-63.721
0.563,0.913,0.167,93.994,72.388,-75.806
0.540,0.941,-0.136,78.918,95.154,-88.989
0.556,0.985,-0.257,68.542,83.374,-98.999
0.578,1.002,-0.261,65.918,52.368,-107.971
0.611,0.974,-0.181,68.787,16.663,-115.234
0.610,0.950,-0.086,74.280,-18.921,-120.056
0.607,0.933,-0.021,85.266,-49.438,-122.986
0.632,0.907,-0.002,97.778,-72.571,-123.230
0.669,0.828,-0.014,108.704,-87.280,-121.826
0.717,0.720,-0.039,114.258,-93.628,-121.033
0.733,0.612,-0.039,112.976,-95.398,-123.047
0.747,0.474,-0.028,106.018,-90.210,-124.390
0.781,0.342,-0.028,96.863,-74.768,-122.375
0.821,0.274,-0.038,88.318,-56.519,-118.835
0.845,0.232,-0.063,81.909,-45.959,-115.417
0.850,0.147,-0.093,77.393,-44.128,-114.624
0.844,-0.005,-0.099,73.914,-47.241,-113.770
0.832,-0.109,-0.105,70.435,-49.744,-109.314
0.840,-0.172,-0.088,67.444,-49.988,-102.051
0.863,-0.234,-0.045,64.819,-49.805,-94.910
0.863,-0.264,-0.010,61.096,-51.453,-89.966
0.840,-0.278,0.015,57.129,-56.519,-86.243
0.796,-0.297,0.048,53.284,-63.049,-83.618
0.760,-0.327,0.099,49.683,-67.627,-81.238
0.709,-0.334,0.098,49.194,-67.627,-76.111
0.723,-0.341,0.137,41.809,-65.186,-71.167
0.749,-0.339,0.162,37.048,-63.171,-67.261
0.770,-0.360,0.203,36.682,-63.782,-64.819
0.762,-0.369,0.236,36.926,-65.735,-63.721
0.755,-0.401,0.276,38.940,-67.932,-59.814
0.762,-0.415,0.309,40.527,-69.458,-54.871
0.779,-0.405,0.323,42.603,-68.604,-51.819
0.782,-0.402,0.326,44.250,-66.040,-51.697
0.767,-0.400,0.315,46.082,-60.852,-52.551
0.757,-0.398,0.285,46.570,-52.307,-52.429
0.775,-0.398,0.267,44.739,-42.908,-50.415
0.801,-0.413,0.240,42.175,-34.180,-49.011
0.816,-0.438,0.225,40.161,-29.053,-50.659
0.820,-0.473,0.235,37.903,-27.954,-53.589
0.834,-0.469,0.234,34.790,-30.212,-55.359
0.834,-0.490,0.254,31.250,-36.926,-55.481
0.803,-0.517,0.280,29.480,-46.326,-54.688
0.779,-0.540,0.333,24.963,-55.298,-52.917
0.744,-0.534,0.381,23.254,-62.805,-47.546
0.718,-0.538,0.417,26.184,-68.542,-40.649
0.704,-0.535,0.435,30.640,-71.655,-35.156
0.711,-0.502,0.432,33.997,-71.106,-29.541
0.749,-0.467,0.423,36.316,-67.139,-25.269
0.813,-0.434,0.401,38.757,-60.791,-26.794
0.824,-0.466,0.407,38.391,-53.162,-35.706
0.805,-0.498,0.388,35.034,-44.373,-44.983
0.794,-0.551,0.388,31.921,-35.034,-47.668
0.784,-0.551,0.380,27.588,-28.931,-46.936
0.767,-0.543,0.387,23.499,-27.893,-45.898
0.755,-0.514,0.391,22.827,-31.799,-45.654
0.731,-0.503,0.410,25.085,-40.955,-45.227
0.703,-0.548,0.422,30.457,-52.551,-44.373
0.685,-0.565,0.428,35.095,-62.378,-41.626
0.681,-0.543,0.431,36.804,-69.214,-38.208
0.691,-0.524,0.441,37.048,-73.914,-36.011
0.693,-0.534,0.457,36.621,-76.538,-37.231
0.709,-0.571,0.462,35.400,-74.402,-39.673
0.701,-0.603,0.458,33.447,-67.383,-41.077
0.708,-0.626,0.443,30.151,-56.946,-40.100
0.717,-0.600,0.436,25.879,-46.875,-39.368
0.726,-0.599,0.427,22.949,-39.856,-42.053
0.697,-0.620,0.427,21.790,-37.537,-45.227
0.682,-0.666,0.435,20.325,-38.574,-44.250
0.666,-0.663,0.445,17.517,-40.894,-39.124
0.667,-0.633,0.460,15.320,-43.762,-33.691
0.653,-0.627,0.493,14.404,-46.631,-30.762
0.641,-0.618,0.521,13.794,-48.157,-30.151
0.614,-0.618,0.542,13.855,-48.279,-30.701
0.597,-0.629,0.545,13.977,-46.204,-31.250
0.597,-0.634,0.557,12.573,-42.480,-31.006
0.593,-0.659,0.552,10.071,-38.208,-32.104
0.571,-0.682,0.540,6.592,-33.325,-33.264
0.545,-0.728,0.540,2.441,-28.870,-33.997
0.515,-0.740,0.548,-1.343,-25.146,-32.654
0.501,-0.755,0.563,-3.784,-23.743,-29.358
0.494,-0.729,0.584,-4.700,-25.879,-25.513
0.492,-0.727,0.587,-3.845,-29.724,-23.010
0.496,-0.715,0.597,-3.479,-33.325,-20.081
0.501,-0.693,0.610,-3.906,-36.011,-17.334
0.505,-0.708,0.626,-2.869,-37.781,-15.991
0.501,-0.731,0.629,-1.648,-38.330,-14.526
0.509,-0.748,0.629,-1.343,-36.987,-11.475
0.737,-1.433,0.623,-49.744,78.552,76.233
0.794,-1.521,0.611,-53.101,88.684,89.722
0.859,-1.635,0.583,-57.556,98.389,105.469
0.940,-1.749,0.538,-63.538,109.253,124.329
1.059,-1.840,0.491,-72.266,121.521,143.860
1.130,-1.893,0.413,-82.886,132.202,159.851
1.206,-1.909,0.380,-92.529,138.672,169.922
1.261,-1.925,0.371,-101.013,136.780,174.011
1.274,-1.946,0.373,-106.201,127.380,171.204
1.273,-1.980,0.325,-108.398,118.835,161.438
1.298,-2.054,0.251,-111.084,119.934,146.301
1.268,-2.117,0.132,-114.685,131.897,125.793
1.157,-2.161,-0.081,-117.798,156.189,103.149
0.900,-2.153,-0.304,-136.902,189.514,82.458
0.514,-2.169,-0.597,-165.039,220.276,67.139
0.046,-2.162,-0.890,-187.805,258.301,63.599
-0.460,-1.927,-1.176,-222.107,296.753,74.646
-0.920,-1.367,-1.321,-262.085,324.585,104.187
-1.173,-0.483,-1.380,-298.462,333.618,153.442
-1.187,0.877,-1.592,-316.833,317.993,209.473
-0.793,2.553,-1.696,-301.147,257.629,236.694
-0.243,3.984,-1.423,-299.500,159.119,248.718
0.327,4.000,-0.844,-291.992,93.689,250.366
0.741,4.000,-0.254,-230.286,96.680,231.873
1.034,4.000,0.165,-147.461,111.267,201.050
1.120,3.487,0.597,-91.797,99.731,177.795
1.033,2.691,1.065,-48.401,56.030,150.513
0.839,1.950,1.431,-20.447,-1.587,106.262
0.643,1.473,1.654,-9.949,-42.297,53.650
0.501,1.166,1.680,-1.099,-39.856,15.320
0.443,1.036,1.366,17.212,7.446,-3.601
0.497,1.043,0.836,43.091,77.820,-11.292
0.477,0.978,0.312,64.209,128.418,-21.851
0.334,0.872,-0.123,74.402,130.371,-43.457
0.213,0.733,-0.326,69.580,90.210,-69.092
0.172,0.643,-0.350,63.782,35.767,-82.214
0.265,0.619,-0.260,65.796,-7.812,-78.247
0.396,0.664,-0.135,73.059,-38.086,-72.205
0.516,0.723,-0.028,82.764,-62.439,-71.289
0.591,0.775,0.039,94.910,-87.219,-75.256
0.693,0.811,0.089,106.812,-112.305,-79.529
0.744,0.851,0.107,117.188,-133.362,-83.923
0.770,0.855,0.106,127.075,-144.409,-89.661
0.791,0.789,0.074,134.705,-142.029,-94.421
0.787,0.695,0.049,138.672,-131.531,-98.206
0.801,0.596,0.021,138.367,-119.263,-100.708
0.852,0.463,-0.008,135.498,-104.919,-101.685
0.885,0.343,-0.032,131.165,-90.881,-104.065
0.884,0.219,-0.047,127.625,-79.102,-108.276
0.892,0.120,-0.049,123.230,-71.411,-110.107
0.901,0.029,-0.036,119.507,-70.129,-110.535
0.918,-0.079,-0.017,120.117,-75.439,-110.535
0.914,-0.162,-0.001,123.413,-84.839,-109.680
0.922,-0.233,0.005,125.366,-93.018,-106.873
0.933,-0.282,0.023,125.305,-96.619,-102.539
0.923,-0.334,0.037,123.840,-93.994,-98.450
0.907,-0.364,0.043,119.324,-86.243,-95.032
0.883,-0.391,0.037,109.802,-75.378,-92.468
0.854,-0.429,0.042,96.680,-65.796,-91.248
0.816,-0.471,0.053,85.205,-57.922,-89.050
0.803,-0.509,0.081,75.806,-53.467,-85.449
0.769,-0.539,0.140,67.261,-54.382,-79.773
0.756,-0.532,0.126,63.660,-58.411,-71.289
0.802,-0.527,0.194,50.476,-65.247,-62.805
0.814,-0.497,0.261,40.405,-71.472,-59.204
0.832,-0.479,0.319,35.767,-73.669,-59.631
0.830,-0.466,0.355,32.166,-72.327,-61.157
0.830,-0.468,0.384,27.466,-67.383,-60.669
0.815,-0.490,0.409,24.841,-60.303,-59.753
0.804,-0.531,0.417,27.893,-54.016,-59.326
0.783,-0.572,0.427,29.907,-51.697,-56.824
0.749,-0.597,0.456,30.151,-53.589,-56.580
0.713,-0.653,0.487,32.471,-56.274,-57.922
0.668,-0.683,0.517,36.133,-58.350,-56.885
0.639,-0.701,0.523,40.344,-58.899,-51.880
0.628,-0.685,0.526,43.762,-56.946,-45.288
0.647,-0.649,0.529,47.424,-52.002,-38.452
0.675,-0.588,0.505,50.354,-45.044,-33.691
0.688,-0.541,0.479,52.002,-38.330,-32.898
0.681,-0.537,0.454,52.124,-32.654,-34.851
0.672,-0.573,0.428,51.208,-27.771,-37.476
0.652,-0.605,0.396,48.462,-23.132,-36.255
0.650,-0.622,0.385,42.358,-22.156,-33.997
0.646,-0.639,0.368,39.246,-24.475,-31.067
0.653,-0.656,0.358,37.476,-29.480,-29.724
0.658,-0.668,0.356,36.194,-35.950,-29.236
0.658,-0.672,0.363,32.715,-41.260,-28.809
0.676,-0.657,0.376,26.428,-44.128,-26.367
0.689,-0.612,0.409,19.714,-45.105,-24.658
0.703,-0.572,0.432,15.381,-44.739,-26.855
0.702,-0.570,0.456,13.123,-43.823,-31.250
0.696,-0.586,0.466,12.817,-42.175,-34.790
0.695,-0.595,0.470,12.329,-38.696,-35.583
0.698,-0.610,0.482,10.376,-34.485,-35.156
0.697,-0.636,0.484,8.911,-29.785,-34.973
0.678,-0.644,0.469,8.301,-25.818,-35.400
0.664,-0.665,0.471,7.446,-24.414,-36.987
0.639,-0.697,0.484,6.042,-24.841,-38.696
0.623,-0.696,0.506,4.272,-26.123,-38.391
0.620,-0.674,0.539,3.418,-27.344,-37.659
0.621,-0.663,0.559,5.127,-28.870,-38.025
0.612,-0.653,0.559,5.493,-28.992,-37.903
0.605,-0.643,0.566,3.845,-26.306,-37.231
0.614,-0.623,0.578,0.977,-19.653,-36.316
0.612,-0.637,0.588,-1.099,-12.207,-35.767
0.601,-0.684,0.586,-2.075,-6.165,-34.302
0.592,-0.718,0.575,-2.258,-2.502,-30.518
0.582,-0.756,0.561,-2.014,-1.160,-25.696
0.577,-0.765,0.523,-0.977,-1.343,-20.386
0.577,-0.774,0.485,-0.671,-3.174,-16.846
0.575,-0.775,0.461,-2.258,-6.470,-14.587
0.573,-0.761,0.466,-4.944,-11.169,-13.489
0.576,-0.765,0.476,-7.507,-17.029,-13.367
0.589,-0.746,0.491,-9.216,-21.912,-13.367
0.615,-0.729,0.526,-10.742,-24.414,-13.306
0.636,-0.735,0.561,-10.498,-24.292,-13.916
0.654,-0.741,0.566,-7.690,-21.729,-14.954
0.676,-0.752,0.567,-5.188,-17.090,-15.503
0.669,-0.756,0.568,-4.211,-11.169,-15.686
0.789,-1.334,0.534,-89.233,79.956,85.449
0.820,-1.386,0.540,-93.750,81.482,105.530
0.865,-1.421,0.531,-98.755,86.975,128.723
0.898,-1.438,0.525,-102.295,94.299,152.222
0.986,-1.433,0.508,-104.675,102.905,174.072
1.087,-1.407,0.501,-105.591,107.422,188.965
1.213,-1.456,0.512,-99.792,104.553,194.702
1.391,-1.589,0.546,-87.891,100.403,186.707
1.539,-1.706,0.584,-76.172,97.717,165.344
1.590,-1.754,0.504,-66.345,100.647,135.254
1.572,-1.726,0.443,-65.918,114.197,103.760
1.484,-1.752,0.304,-71.655,134.888,74.280
1.383,-1.855,0.111,-75.989,168.884,53.040
1.194,-1.933,-0.131,-90.393,204.712,38.452
0.884,-2.082,-0.418,-110.962,238.953,28.015
0.410,-2.255,-0.758,-136.169,272.400,22.461
-0.123,-2.293,-1.046,-164.795,303.772,29.541
-0.657,-1.947,-1.279,-194.763,319.763,54.504
-1.107,-1.303,-1.448,-218.445,311.157,99.365
-1.347,-0.358,-1.464,-240.723,282.410,159.363
-1.356,0.935,-1.404,-250.183,240.662,225.830
-0.979,2.585,-1.417,-239.685,190.430,272.949
-0.409,3.996,-1.218,-221.191,136.292,271.423
0.008,4.000,-0.723,-206.787,101.074,227.112
0.462,4.000,0.028,-195.374,110.718,192.688
0.917,4.000,0.629,-164.856,131.042,195.923
1.279,3.597,1.049,-110.168,118.042,201.599
1.472,2.807,1.331,-47.607,59.692,185.303
1.591,2.100,1.653,0.183,-29.907,149.231
1.523,1.551,2.006,32.837,-116.577,96.008
1.286,1.261,2.085,57.434,-149.414,30.579
0.985,1.111,1.790,80.383,-105.164,-19.226
0.707,1.052,1.224,103.027,-13.245,-48.645
0.405,0.962,0.592,112.061,79.712,-70.068
0.175,0.828,0.043,103.821,139.587,-91.492
0.057,0.699,-0.324,94.910,154.175,-101.318
0.123,0.690,-0.486,85.449,121.826,-99.976
0.225,0.735,-0.498,83.130,63.599,-96.130
0.345,0.750,-0.444,90.088,1.587,-95.337
0.458,0.710,-0.352,101.685,-55.725,-96.741
0.549,0.666,-0.275,114.624,-105.225,-99.365
0.614,0.623,-0.199,123.596,-142.578,-101.929
0.641,0.544,-0.124,126.770,-161.438,-103.027
0.677,0.443,-0.061,125.305,-159.424,-102.051
0.707,0.352,-0.039,119.080,-142.029,-101.318
0.721,0.274,-0.049,110.107,-114.990,-101.135
0.740,0.184,-0.078,101.013,-84.839,-98.938
0.779,0.078,-0.106,92.834,-59.753,-94.482
0.819,-0.013,-0.130,86.243,-45.349,-89.172
0.839,-0.104,-0.140,82.397,-42.175,-84.778
0.856,-0.182,-0.155,80.994,-46.936,-81.238
0.870,-0.252,-0.149,80.017,-54.138,-76.111
0.891,-0.283,-0.136,77.759,-61.340,-68.665
0.904,-0.306,-0.096,73.303,-67.139,-61.829
0.945,-0.312,-0.062,68.359,-69.641,-56.763
0.979,-0.306,-0.021,61.462,-68.298,-54.504
0.984,-0.327,0.027,53.894,-64.392,-54.382
0.969,-0.356,0.073,45.898,-59.143,-53.650
0.970,-0.381,0.115,39.795,-53.589,-50.415
0.987,-0.378,0.149,35.583,-49.805,-46.997
0.991,-0.363,0.174,32.715,-49.744,-45.227
0.993,-0.357,0.218,30.151,-52.551,-45.349
1.031,-0.359,0.298,31.799,-58.044,-47.607
0.931,-0.321,0.217,44.128,-58.167,-47.852
0.950,-0.342,0.302,31.616,-61.462,-50.049
0.894,-0.311,0.326,26.184,-63.904,-49.927
0.901,-0.364,0.355,30.457,-65.002,-46.204
0.892,-0.365,0.343,35.339,-64.026,-40.527
0.895,-0.344,0.360,36.804,-62.317,-36.255
0.911,-0.328,0.352,39.612,-58.838,-35.339
0.914,-0.313,0.346,41.687,-54.321,-36.316
0.905,-0.286,0.351,37.476,-52.246,-41.504
0.891,-0.286,0.375,30.579,-52.368,-47.058
0.862,-0.288,0.403,26.428,-53.223,-49.622
0.848,-0.307,0.432,28.870,-54.504,-48.706
0.830,-0.325,0.452,35.583,-57.617,-46.753
0.816,-0.364,0.456,42.969,-61.218,-46.082
0.796,-0.434,0.444,47.974,-62.866,-46.143
0.773,-0.474,0.429,49.194,-62.195,-44.861
0.764,-0.482,0.424,47.607,-60.547,-42.175
0.758,-0.500,0.436,44.434,-59.875,-40.771
0.750,-0.501,0.451,40.344,-58.777,-39.795
0.749,-0.485,0.471,36.438,-56.824,-37.964
0.750,-0.450,0.486,34.790,-53.528,-36.865
0.755,-0.430,0.496,34.485,-50.354,-37.476
0.747,-0.439,0.513,33.752,-47.852,-38.330
0.741,-0.442,0.526,33.936,-43.701,-38.940
0.719,-0.476,0.528,35.706,-37.048,-39.551
0.702,-0.518,0.506,38.269,-29.663,-37.903
0.709,-0.545,0.483,38.818,-24.109,-33.691
0.730,-0.550,0.460,37.170,-21.118,-29.480
0.748,-0.552,0.454,33.875,-21.057,-27.649
0.764,-0.540,0.449,29.663,-22.461,-28.137
0.774,-0.521,0.464,25.757,-24.536,-28.931
0.767,-0.516,0.473,24.414,-27.039,-31.372
0.753,-0.516,0.473,24.536,-29.114,-32.654
0.737,-0.500,0.472,24.658,-30.090,-31.311
0.738,-0.516,0.479,26.367,-30.823,-29.907
0.740,-0.529,0.481,29.053,-32.043,-29.541
0.731,-0.552,0.476,30.701,-32.959,-30.029
0.722,-0.575,0.466,30.029,-33.020,-29.358
0.724,-0.568,0.462,27.954,-31.738,-28.381
0.717,-0.555,0.459,24.170,-30.334,-29.358
0.708,-0.543,0.457,20.386,-29.175,-31.494
0.684,-0.535,0.465,16.541,-29.785,-34.180
0.671,-0.507,0.479,14.587,-33.630,-35.583
0.651,-0.495,0.493,15.320,-41.199,-35.461
0.615,-0.499,0.493,15.930,-48.889,-36.804
0.605,-0.541,0.500,16.541,-52.979,-36.804
0.582,-0.556,0.500,17.639,-53.589,-34.302
0.564,-0.591,0.494,19.165,-50.598,-31.067
0.567,-0.601,0.471,20.142,-44.739,-28.259
0.563,-0.609,0.452,19.104,-38.025,-27.222
0.558,-0.631,0.445,16.602,-32.715,-27.527
0.553,-0.639,0.439,12.390,-27.710,-28.137
0.554,-0.640,0.458,7.324,-24.475,-28.564
0.543,-0.655,0.472,3.601,-23.804,-29.480
0.536,-0.679,0.484,2.563,-25.146,-28.625
0.545,-0.677,0.485,2.014,-27.588,-25.269
0.787,-1.338,0.667,-66.650,72.510,77.881
0.831,-1.429,0.666,-75.317,85.083,91.187
0.874,-1.503,0.663,-82.581,98.511,108.643
0.914,-1.575,0.637,-89.905,112.671,127.563
1.040,-1.749,0.566,-100.769,130.859,148.743
1.232,-1.897,0.526,-111.267,147.522,171.143
1.448,-2.040,0.523,-120.178,153.259,187.683
1.642,-2.119,0.569,-122.620,141.418,190.674
1.772,-2.208,0.592,-115.662,119.690,174.377
1.788,-2.396,0.540,-98.267,105.286,138.367
1.726,-2.585,0.340,-77.942,115.845,93.994
1.451,-2.709,0.052,-76.782,159.729,56.824
1.098,-2.819,-0.278,-108.215,218.384,27.710
0.572,-2.838,-0.729,-141.174,289.001,13.611
-0.030,-2.791,-1.184,-189.758,351.440,10.620
-0.601,-2.581,-1.536,-246.460,392.883,25.635
-1.085,-2.039,-1.699,-296.692,403.442,68.176
-1.518,-1.031,-1.730,-331.177,372.070,134.583
-1.733,0.287,-1.628,-340.271,303.833,205.750
-1.534,1.979,-1.592,-327.881,216.431,262.329
-1.229,3.535,-1.522,-307.556,135.986,279.114
-0.952,4.000,-1.387,-288.330,98.267,267.883
-0.305,4.000,-0.978,-260.864,110.168,270.935
0.437,4.000,-0.467,-214.539,125.610,292.175
1.063,4.000,-0.151,-143.433,118.774,293.579
1.640,3.955,0.359,-57.556,60.486,265.808
1.914,2.930,0.943,7.874,-42.175,222.534
1.963,2.327,1.614,34.607,-160.156,140.747
1.663,1.882,2.153,45.471,-243.408,37.415
1.174,1.518,2.208,55.054,-222.534,-44.312
0.784,1.266,1.810,69.946,-100.464,-93.994
0.352,1.165,1.173,82.825,49.927,-117.920
-0.000,1.023,0.511,77.637,156.372,-144.531
-0.186,0.878,0.039,71.350,194.824,-161.133
-0.177,0.795,-0.170,69.580,169.800,-157.898
-0.081,0.747,-0.215,80.627,112.488,-143.494
0.033,0.724,-0.214,101.685,47.180,-128.540
0.140,0.686,-0.220,124.084,-10.498,-116.089
0.303,0.659,-0.220,140.137,-55.481,-104.248
0.452,0.628,-0.200,152.100,-88.501,-95.703
0.574,0.594,-0.158,160.645,-111.511,-92.834
0.647,0.557,-0.098,164.246,-128.845,-94.177
0.680,0.481,-0.040,164.185,-141.602,-95.825
0.710,0.371,0.005,161.377,-140.564,-94.543
0.754,0.238,0.038,151.367,-123.474,-92.224
0.774,0.086,0.026,139.343,-93.567,-90.759
0.796,-0.033,-0.015,126.770,-57.922,-89.417
0.820,-0.088,-0.059,115.723,-28.381,-87.952
0.845,-0.112,-0.093,108.826,-15.076,-86.670
0.861,-0.148,-0.123,104.736,-19.592,-86.731
0.866,-0.248,-0.106,104.553,-36.499,-84.839
0.876,-0.358,-0.073,105.713,-57.495,-80.811
0.874,-0.456,-0.020,106.995,-74.829,-76.050
0.873,-0.510,0.030,107.910,-83.679,-71.289
0.862,-0.518,0.064,104.614,-83.618,-67.627
0.873,-0.530,0.091,99.182,-75.378,-64.453
0.890,-0.525,0.098,92.102,-62.317,-60.852
0.901,-0.483,0.098,84.229,-47.913,-56.885
0.917,-0.427,0.092,76.355,-36.011,-54.382
0.906,-0.399,0.092,69.580,-29.846,-51.697
0.942,-0.393,0.096,64.880,-30.762,-49.866
0.958,-0.385,0.103,61.829,-36.194,-51.270
0.946,-0.402,0.136,58.960,-44.922,-56.091
0.922,-0.444,0.173,56.763,-53.406,-59.143
0.898,-0.462,0.211,52.429,-59.204,-56.946
0.889,-0.490,0.253,46.692,-62.195,-51.636
0.864,-0.508,0.297,40.955,-63.293,-46.143
0.839,-0.496,0.323,37.598,-62.500,-40.588
0.841,-0.460,0.350,35.522,-61.218,-34.546
0.857,-0.408,0.382,36.499,-61.951,-31.738
0.864,-0.389,0.403,41.687,-61.768,-35.156
0.873,-0.376,0.396,47.302,-59.021,-40.527
0.854,-0.379,0.396,51.636,-52.734,-46.570
0.816,-0.420,0.384,55.664,-43.091,-52.612
0.793,-0.474,0.377,57.312,-32.043,-55.054
0.767,-0.490,0.366,55.298,-23.437,-53.467
0.757,-0.524,0.364,52.856,-19.287,-49.988
0.762,-0.544,0.361,50.476,-19.897,-46.692
0.761,-0.543,0.365,48.340,-25.391,-44.739
0.749,-0.539,0.381,48.828,-32.715,-43.457
0.745,-0.536,0.375,50.598,-38.025,-42.297
0.732,-0.525,0.362,51.270,-40.344,-40.527
0.735,-0.517,0.351,49.500,-39.673,-37.842
0.731,-0.515,0.349,46.143,-37.048,-35.889
0.739,-0.529,0.353,43.579,-33.997,-35.034
0.726,-0.556,0.335,40.955,-31.067,-35.095
0.703,-0.617,0.314,38.147,-28.442,-34.729
0.685,-0.671,0.301,33.997,-26.672,-32.043
0.679,-0.672,0.291,27.771,-25.452,-28.442
0.681,-0.669,0.297,21.667,-25.757,-26.794
0.678,-0.662,0.323,17.151,-28.748,-26.611
0.658,-0.657,0.365,14.038,-33.569,-27.344
0.643,-0.625,0.368,15.076,-38.269,-25.757
0.627,-0.625,0.403,15.137,-42.114,-23.621
0.643,-0.624,0.413,14.221,-43.884,-23.071
0.648,-0.640,0.404,15.686,-42.664,-22.278
0.647,-0.658,0.382,16.357,-39.246,-20.386
0.679,-0.668,0.372,14.771,-35.217,-16.907
0.709,-0.657,0.369,10.193,-31.189,-14.709
0.728,-0.661,0.384,4.822,-28.564,-14.771
0.730,-0.655,0.399,0.244,-26.489,-17.639
0.726,-0.676,0.409,-2.747,-25.391,-21.851
0.695,-0.687,0.428,-5.188,-26.367,-24.719
0.682,-0.679,0.449,-6.104,-30.334,-25.818
0.675,-0.671,0.476,-4.333,-36.011,-25.879
0.647,-0.702,0.500,0.000,-40.833,-26.245
0.627,-0.698,0.508,3.845,-43.030,-23.865
0.638,-0.665,0.504,5.981,-41.809,-19.775
0.633,-0.651,0.503,6.287,-38.452,-18.311
0.617,-0.658,0.498,5.188,-32.532,-18.372
0.608,-0.651,0.479,2.686,-24.963,-17.456
0.621,-0.656,0.479,-0.793,-18.616,-16.174
0.633,-0.661,0.474,-3.296,-14.648,-17.761
0.623,-0.677,0.466,-4.395,-12.695,-20.752
0.605,-0.709,0.458,-5.005,-12.390,-22.644
0.598,-0.747,0.453,-6.470,-13.245,-22.339
0.592,-0.744,0.466,-8.484,-16.296,-20.142
0.589,-0.736,0.488,-9.644,-21.423,-18.250
0.590,-0.735,0.509,-8.667,-25.818,-16.968
1.074,-1.218,0.344,-62.561,103.638,101.318
1.132,-1.261,0.317,-66.833,102.234,104.004
1.203,-1.317,0.291,-70.190,101.318,108.459
1.256,-1.367,0.256,-74.036,99.548,114.197
1.322,-1.409,0.223,-79.834,97.046,118.652
1.395,-1.403,0.191,-82.458,94.177,120.056
1.416,-1.366,0.133,-78.857,91.492,115.173
1.422,-1.388,0.083,-80.017,84.839,97.290
1.355,-1.487,-0.066,-72.693,90.210,72.021
1.245,-1.624,-0.249,-72.083,108.948,44.556
1.100,-1.760,-0.461,-90.454,137.512,21.729
0.933,-1.908,-0.617,-122.559,171.692,6.775
0.734,-2.092,-0.762,-158.447,204.895,-3.845
0.350,-2.292,-0.971,-189.636,235.840,-13.306
-0.091,-2.478,-1.188,-218.750,267.883,-17.212
-0.554,-2.369,-1.377,-253.601,299.866,-3.601
-1.023,-1.896,-1.496,-286.377,312.561,39.124
-1.291,-1.072,-1.545,-308.350,292.358,106.628
-1.398,0.015,-1.604,-314.575,245.850,183.411
-1.359,1.300,-1.571,-302.002,190.979,248.596
-1.099,2.898,-1.448,-273.437,144.714,289.490
-0.555,4.000,-1.243,-237.366,108.398,308.716
0.262,4.000,-0.908,-225.952,85.083,308.777
1.074,4.000,-0.181,-209.167,95.032,289.429
1.783,4.000,0.571,-161.377,116.821,261.414
2.216,3.848,1.343,-96.558,89.783,236.694
2.362,2.885,2.034,-26.184,-30.823,204.834
2.193,2.163,2.690,26.062,-204.224,127.075
1.620,1.546,2.997,66.772,-308.533,25.879
1.019,1.144,2.643,106.812,-266.052,-47.119
0.594,1.028,1.910,130.066,-105.408,-73.364
0.284,1.027,0.997,136.353,74.402,-84.717
-0.002,0.865,0.126,134.460,204.102,-98.450
-0.183,0.616,-0.473,119.019,245.239,-110.291
-0.159,0.441,-0.703,97.534,206.116,-102.905
0.042,0.423,-0.699,87.708,123.169,-81.665
0.267,0.478,-0.633,95.947,37.354,-61.401
0.500,0.527,-0.558,107.971,-31.311,-51.941
0.626,0.586,-0.427,114.380,-80.627,-51.147
0.723,0.550,-0.263,115.173,-118.103,-60.974
0.760,0.506,-0.095,113.403,-144.836,-70.190
0.756,0.450,0.083,107.239,-158.936,-75.562
0.727,0.382,0.209,102.051,-156.006,-78.674
0.699,0.308,0.278,98.328,-138.489,-78.430
0.688,0.259,0.278,96.130,-111.694,-73.792
0.718,0.230,0.237,93.811,-81.177,-66.162
0.778,0.192,0.178,93.140,-54.443,-58.533
0.834,0.178,0.111,95.703,-38.635,-53.040
0.883,0.134,0.077,99.915,-36.499,-51.941
0.907,0.032,0.057,104.004,-44.739,-55.115
0.902,-0.068,0.062,107.422,-56.580,-59.143
0.896,-0.136,0.102,108.582,-65.979,-62.195
0.890,-0.160,0.135,105.469,-69.824,-62.744
0.888,-0.156,0.139,100.647,-67.017,-59.204
0.906,-0.126,0.130,96.619,-58.594,-53.772
0.926,-0.133,0.130,93.567,-48.889,-50.537
0.939,-0.188,0.127,92.224,-41.992,-50.171
0.929,-0.248,0.119,90.454,-40.283,-50.293
0.914,-0.286,0.120,86.975,-43.457,-50.537
0.901,-0.288,0.141,81.421,-50.720,-50.903
0.874,-0.338,0.196,74.585,-60.852,-50.415
0.889,-0.418,0.333,69.336,-71.350,-50.842
0.814,-0.382,0.312,76.538,-72.510,-47.424
0.864,-0.384,0.393,67.200,-73.120,-46.326
0.864,-0.343,0.412,66.284,-70.984,-45.410
0.904,-0.356,0.411,76.294,-66.956,-45.044
0.926,-0.367,0.390,87.280,-61.218,-46.265
0.926,-0.389,0.332,95.276,-52.246,-46.753
0.953,-0.418,0.281,94.116,-40.527,-46.997
0.957,-0.432,0.262,87.158,-29.175,-50.476
0.946,-0.466,0.223,79.712,-21.057,-55.603
0.910,-0.526,0.235,66.528,-20.508,-59.387
0.879,-0.563,0.256,55.115,-26.428,-60.059
0.836,-0.546,0.294,50.354,-36.377,-56.641
0.797,-0.559,0.343,48.950,-50.110,-54.932
0.761,-0.568,0.371,51.147,-62.073,-51.697
0.760,-0.548,0.411,55.237,-69.763,-46.936
0.789,-0.512,0.418,58.411,-72.021,-44.800
0.811,-0.495,0.428,60.730,-67.810,-45.288
0.818,-0.524,0.412,62.073,-56.946,-47.119
0.810,-0.560,0.368,60.608,-42.542,-47.302
0.810,-0.583,0.329,56.335,-29.602,-45.227
0.813,-0.573,0.298,49.622,-19.409,-43.457
0.790,-0.607,0.299,43.213,-16.174,-45.593
0.744,-0.624,0.314,38.269,-18.555,-48.889
0.703,-0.628,0.339,36.072,-25.391,-49.438
0.668,-0.631,0.366,36.072,-34.424,-46.204
0.645,-0.630,0.395,36.438,-43.213,-40.527
0.646,-0.594,0.402,36.316,-47.302,-34.424
0.686,-0.552,0.407,35.339,-45.715,-29.724
0.699,-0.531,0.396,36.560,-39.307,-27.649
0.697,-0.553,0.368,37.048,-28.748,-28.870
0.694,-0.568,0.327,34.363,-16.357,-28.320
0.711,-0.556,0.286,28.870,-7.263,-25.696
0.709,-0.577,0.253,22.827,-2.563,-26.123
0.695,-0.598,0.240,16.541,-2.258,-28.687
0.693,-0.619,0.240,10.498,-7.935,-30.334
0.669,-0.639,0.252,5.127,-19.592,-30.823
0.656,-0.640,0.286,1.831,-33.508,-29.907
0.649,-0.636,0.326,0.061,-45.410,-28.442
0.652,-0.621,0.362,-1.343,-52.246,-26.733
0.645,-0.608,0.390,-1.282,-54.077,-25.330
0.655,-0.610,0.400,-0.793,-51.575,-25.146
0.668,-0.603,0.403,-1.282,-45.593,-25.391
0.663,-0.627,0.402,-2.991,-37.231,-27.222
0.660,-0.637,0.403,-7.263,-28.259,-28.259
0.657,-0.641,0.405,-11.108,-21.606,-28.992
0.641,-0.680,0.402,-12.634,-18.127,-31.616
0.623,-0.719,0.402,-14.832,-19.043,-32.349
0.605,-0.737,0.419,-17.151,-24.231,-31.250
0.597,-0.742,0.433,-18.677,-31.738,-29.602
0.589,-0.719,0.463,-19.714,-39.368,-27.649
0.572,-0.719,0.486,-19.043,-44.617,-28.503
0.558,-0.725,0.505,-18.005,-46.326,-28.687
0.557,-0.720,0.527,-17.883,-43.762,-26.123
0.567,-0.696,0.550,-17.517,-37.842,-22.339
0.588,-0.689,0.561,-16.174,-29.297,-20.142
0.601,-0.694,0.555,-14.709,-19.592,-20.203
0.604,-0.758,0.575,-14.221,-10.803,-19.775
0.755,-1.151,0.616,-39.246,82.825,98.389
0.807,-1.146,0.571,-44.800,89.294,109.680
0.894,-1.141,0.548,-50.842,96.985,121.643
0.929,-1.115,0.501,-56.641,106.262,135.681
0.979,-1.064,0.423,-60.852,119.507,151.917
1.089,-1.025,0.325,-66.284,135.986,169.678
1.222,-0.946,0.243,-73.547,149.414,185.669
1.365,-0.827,0.167,-76.965,153.381,189.087
1.474,-0.737,0.129,-72.510,146.667,175.659
1.537,-0.690,0.064,-59.998,132.141,147.522
1.557,-0.661,0.025,-53.467,112.854,110.901
1.497,-0.712,-0.025,-48.950,95.276,71.289
1.413,-0.817,-0.125,-46.570,89.844,37.598
1.325,-0.966,-0.207,-54.260,96.313,11.230
1.174,-1.105,-0.318,-68.970,114.136,-11.230
1.031,-1.356,-0.475,-89.844,141.663,-34.607
0.814,-1.745,-0.716,-115.112,178.345,-56.458
0.468,-2.235,-1.021,-141.907,224.548,-77.148
0.061,-2.780,-1.365,-176.331,272.583,-92.896
-0.362,-3.034,-1.573,-216.858,309.021,-91.431
-0.779,-2.872,-1.684,-259.277,318.542,-58.411
-1.065,-2.391,-1.695,-293.396,295.105,14.099
-1.196,-1.679,-1.606,-299.438,244.995,103.882
-1.230,-0.540,-1.496,-284.546,185.852,190.247
-1.147,0.948,-1.438,-257.385,137.695,268.494
-0.833,2.706,-1.458,-221.924,111.877,321.777
-0.384,4.000,-1.422,-202.393,90.332,328.064
0.280,4.000,-1.075,-211.121,63.477,292.114
0.858,4.000,-0.274,-222.412,56.702,250.122
1.307,4.000,0.430,-202.087,60.059,233.154
1.789,4.000,1.004,-154.114,35.400,231.750
1.966,3.256,1.599,-82.092,-53.650,217.041
1.918,2.248,2.321,-16.907,-200.134,167.603
1.574,1.430,3.113,27.344,-343.323,78.186
0.998,0.938,3.402,61.218,-403.076,-2.930
0.620,0.705,2.970,96.375,-320.374,-40.283
0.464,0.687,2.161,134.766,-136.841,-40.344
0.317,0.766,1.172,148.621,55.725,-37.170
0.228,0.745,0.332,133.545,198.975,-46.082
0.225,0.633,-0.216,104.248,263.916,-57.434
0.288,0.605,-0.503,78.186,259.277,-66.040
0.370,0.621,-0.590,69.763,205.627,-74.768
0.461,0.624,-0.618,78.857,130.249,-77.332
0.539,0.646,-0.572,88.196,53.955,-75.195
0.627,0.645,-0.472,88.623,-9.460,-80.261
0.652,0.615,-0.350,90.454,-58.533,-85.205
0.676,0.498,-0.199,99.670,-93.262,-85.632
0.683,0.424,-0.061,105.164,-114.563,-81.177
0.699,0.375,0.045,105.347,-122.131,-76.172
0.712,0.333,0.138,104.431,-118.958,-72.632
0.735,0.314,0.210,104.248,-109.314,-68.359
0.790,0.307,0.229,102.600,-93.689,-64.148
0.846,0.298,0.209,101.379,-74.280,-61.768
0.876,0.216,0.185,103.271,-58.228,-63.477
0.928,0.144,0.142,105.042,-48.035,-67.322
0.958,0.051,0.105,104.553,-44.617,-71.167
0.976,-0.049,0.105,103.333,-47.546,-72.998
0.974,-0.100,0.109,99.915,-55.603,-73.608
0.948,-0.142,0.141,96.375,-64.148,-74.341
0.910,-0.194,0.181,94.238,-69.214,-74.890
0.879,-0.212,0.206,93.689,-72.510,-73.486
0.850,-0.219,0.214,92.102,-76.294,-71.594
0.826,-0.268,0.221,91.492,-79.285,-69.336
0.831,-0.343,0.227,92.163,-79.895,-67.261
0.812,-0.393,0.221,91.125,-78.064,-66.162
0.785,-0.459,0.223,87.280,-74.402,-64.819
0.726,-0.501,0.259,81.726,-69.214,-62.073
0.753,-0.481,0.193,80.994,-63.049,-56.396
0.792,-0.495,0.241,72.937,-57.007,-50.842
0.810,-0.485,0.256,62.805,-55.237,-51.208
0.828,-0.498,0.274,60.364,-52.368,-50.659
0.839,-0.506,0.294,58.105,-52.673,-51.941
0.831,-0.513,0.307,60.608,-51.941,-55.054
0.818,-0.531,0.302,64.392,-48.950,-57.739
0.798,-0.564,0.313,63.354,-44.861,-57.312
0.786,-0.586,0.329,56.946,-42.480,-53.162
0.790,-0.576,0.346,50.049,-40.222,-48.584
0.790,-0.577,0.359,47.546,-37.598,-45.288
0.790,-0.589,0.364,48.157,-36.072,-43.884
0.780,-0.603,0.341,50.476,-35.583,-43.457
0.786,-0.629,0.312,51.331,-34.973,-43.152
0.795,-0.637,0.296,49.866,-34.180,-41.199
0.797,-0.651,0.290,46.326,-32.288,-39.063
0.790,-0.645,0.278,41.748,-29.480,-38.452
0.790,-0.624,0.265,35.706,-27.466,-38.086
0.772,-0.606,0.281,29.358,-28.320,-38.574
0.750,-0.607,0.304,25.146,-31.250,-40.100
0.723,-0.615,0.331,22.766,-35.583,-39.246
0.726,-0.612,0.361,21.973,-43.030,-35.645
0.730,-0.596,0.390,22.888,-52.124,-32.349
0.728,-0.609,0.423,25.757,-58.167,-30.518
0.721,-0.614,0.434,28.748,-58.960,-28.503
0.709,-0.632,0.430,30.762,-55.359,-27.649
0.693,-0.641,0.408,30.518,-48.950,-27.710
0.678,-0.637,0.394,27.283,-41.992,-28.503
0.676,-0.633,0.407,23.437,-37.537,-29.968
0.671,-0.632,0.432,18.372,-36.255,-31.433
0.663,-0.633,0.470,13.000,-36.560,-31.189
0.681,-0.629,0.518,10.925,-36.133,-30.029
0.680,-0.613,0.538,13.855,-34.790,-29.846
0.669,-0.637,0.526,20.203,-34.180,-29.907
0.672,-0.684,0.493,26.611,-34.424,-28.015
0.659,-0.691,0.463,29.053,-35.828,-23.499
0.656,-0.682,0.449,28.503,-38.025,-19.836
0.657,-0.696,0.443,26.978,-38.940,-18.494
0.650,-0.700,0.439,22.278,-38.147,-19.897
0.632,-0.717,0.452,15.991,-34.241,-21.667
0.626,-0.727,0.444,10.803,-27.222,-21.667
0.626,-0.715,0.435,6.409,-16.968,-19.775
0.630,-0.709,0.429,2.808,-7.385,-18.982
0.636,-0.708,0.408,1.343,-1.099,-19.226
0.636,-0.699,0.386,1.282,0.244,-17.456
0.637,-0.685,0.373,1.892,-3.845,-15.015
0.653,-0.679,0.374,2.625,-11.597,-13.306
0.651,-0.670,0.375,2.563,-19.897,-12.878
0.640,-0.686,0.380,0.427,-26.428,-13.916
0.620,-0.688,0.385,-1.831,-29.480,-14.221
0.603,-0.670,0.394,-5.127,-30.823,-13.611
0.586,-0.663,0.414,-8.972,-31.128,-13.489
0.838,-1.135,0.551,-50.842,90.454,90.210
0.881,-1.127,0.525,-57.373,101.990,102.661
0.915,-1.118,0.472,-61.890,111.023,114.197
0.946,-1.114,0.419,-64.392,117.004,123.901
1.008,-1.113,0.344,-71.350,119.507,134.033
1.076,-1.110,0.320,-77.515,115.845,144.348
1.141,-1.037,0.275,-81.116,107.361,151.550
1.204,-0.995,0.268,-81.360,94.421,152.100
1.238,-0.947,0.271,-78.369,77.759,143.555
1.234,-0.911,0.282,-72.449,62.195,125.916
1.241,-0.913,0.297,-66.589,52.917,103.455
1.205,-0.925,0.277,-62.256,54.199,79.773
1.169,-0.960,0.232,-62.195,69.031,58.960
1.156,-0.987,0.181,-69.641,93.018,43.579
1.146,-1.027,0.132,-82.886,118.042,31.494
1.148,-1.106,0.106,-95.520,140.625,19.592
1.115,-1.160,0.057,-108.093,160.950,10.010
1.047,-1.218,-0.026,-120.422,180.542,5.371
0.963,-1.331,-0.149,-129.211,200.684,6.470
0.851,-1.490,-0.307,-135.498,221.558,12.756
0.639,-1.700,-0.512,-141.052,240.173,21.423
0.237,-1.942,-0.810,-143.982,259.155,22.156
-0.211,-2.160,-1.190,-142.090,282.227,9.827
-0.680,-1.782,-1.444,-138.733,293.762,-1.831
-1.121,-1.086,-1.648,-143.372,281.677,-6.897
-1.421,0.061,-1.723,-153.381,254.883,17.029
-1.475,1.570,-1.809,-152.283,217.468,96.619
-1.164,3.334,-1.658,-157.288,174.500,196.106
-0.270,4.000,-1.361,-196.228,120.911,294.861
0.973,4.000,-0.536,-238.342,79.956,342.224
2.047,4.000,0.523,-214.661,80.872,322.449
2.640,4.000,1.348,-126.587,80.078,285.461
2.872,3.005,2.018,-20.508,-7.019,254.272
2.809,2.000,2.638,61.829,-190.063,166.199
2.159,1.239,3.154,106.506,-364.563,28.137
1.309,0.767,3.093,124.878,-399.353,-88.013
0.679,0.657,2.413,148.621,-261.169,-116.760
0.338,0.668,1.490,159.668,-50.598,-99.548
0.032,0.642,0.447,155.457,130.920,-85.144
-0.146,0.426,-0.268,136.658,220.764,-80.872
-0.220,0.292,-0.549,107.727,209.900,-78.613
-0.136,0.281,-0.585,87.341,145.630,-68.848
0.055,0.368,-0.526,78.979,82.703,-54.810
0.259,0.436,-0.442,79.712,39.856,-45.593
0.439,0.481,-0.373,83.862,13.184,-43.396
0.554,0.530,-0.259,83.069,-13.489,-47.791
0.672,0.519,-0.142,74.097,-41.931,-64.514
0.741,0.517,-0.009,63.599,-70.984,-82.397
0.745,0.501,0.093,59.692,-95.642,-92.468
0.702,0.455,0.141,62.378,-111.450,-97.473
0.654,0.392,0.183,59.143,-117.920,-99.182
0.637,0.333,0.218,53.955,-115.601,-96.558
0.656,0.302,0.230,55.237,-104.736,-86.182
0.701,0.249,0.230,61.951,-91.980,-72.998
0.749,0.134,0.227,69.336,-82.092,-64.270
0.760,0.025,0.209,74.707,-74.585,-61.279
0.760,-0.053,0.188,76.172,-68.542,-61.218
0.755,-0.130,0.190,75.684,-62.317,-63.354
0.772,-0.213,0.174,72.693,-53.833,-67.505
0.785,-0.280,0.169,66.162,-42.236,-71.350
0.801,-0.292,0.166,58.289,-29.419,-72.388
0.850,-0.279,0.155,53.162,-20.264,-68.604
0.907,-0.316,0.130,51.941,-19.775,-62.988
0.950,-0.356,0.093,53.345,-27.771,-59.387
0.969,-0.366,0.067,54.749,-42.542,-57.556
0.983,-0.378,0.072,54.321,-59.387,-56.458
0.973,-0.407,0.096,51.697,-74.097,-56.030
0.953,-0.442,0.128,48.462,-83.191,-57.129
0.925,-0.446,0.180,44.373,-85.999,-58.350
0.928,-0.444,0.228,39.856,-85.022,-58.167
0.889,-0.495,0.343,38.025,-83.313,-57.800
0.823,-0.476,0.291,50.720,-78.369,-53.467
0.875,-0.531,0.371,44.312,-74.097,-51.208
0.870,-0.531,0.363,43.030,-68.542,-50.537
0.895,-0.551,0.349,50.232,-59.082,-46.814
0.919,-0.538,0.325,51.575,-49.744,-45.349
0.926,-0.537,0.294,53.223,-42.358,-42.603
0.935,-0.544,0.272,54.810,-38.208,-40.283
0.944,-0.537,0.251,52.124,-37.781,-40.894
0.933,-0.552,0.240,46.814,-41.199,-43.396
0.910,-0.574,0.247,42.114,-46.509,-46.936
0.877,-0.598,0.267,36.804,-50.781,-51.392
0.829,-0.613,0.299,33.081,-54.077,-52.856
0.809,-0.647,0.344,34.058,-56.396,-52.979
0.777,-0.685,0.364,37.048,-56.519,-52.673
0.760,-0.687,0.353,39.795,-54.199,-48.889
0.773,-0.661,0.310,41.992,-49.316,-43.335
0.787,-0.651,0.278,41.809,-43.457,-39.734
0.786,-0.657,0.242,39.124,-38.391,-38.513
0.785,-0.657,0.219,33.875,-34.424,-37.231
0.789,-0.651,0.215,27.405,-32.349,-36.194
0.790,-0.654,0.238,21.362,-33.691,-36.560
0.770,-0.657,0.287,16.418,-39.246,-38.208
0.738,-0.679,0.335,14.038,-46.936,-41.565
0.698,-0.682,0.364,12.878,-54.932,-42.969
0.652,-0.709,0.417,13.428,-62.561,-41.626
0.628,-0.717,0.450,14.465,-67.200,-37.964
0.609,-0.692,0.473,16.846,-66.711,-31.799
0.609,-0.671,0.478,20.264,-61.035,-24.963
0.623,-0.650,0.462,23.193,-50.781,-18.738
0.651,-0.638,0.437,24.048,-38.208,-14.832
0.687,-0.617,0.406,22.034,-25.513,-13.855
0.714,-0.603,0.386,17.578,-14.343,-16.479
0.718,-0.614,0.375,11.902,-5.798,-21.362
0.708,-0.644,0.372,5.859,-0.488,-24.841
0.703,-0.645,0.369,0.488,1.099,-25.452
0.697,-0.632,0.390,-3.357,-2.075,-24.902
0.679,-0.632,0.391,-1.953,-8.728,-24.658
0.670,-0.634,0.381,0.916,-17.883,-23.621
0.664,-0.628,0.390,0.305,-27.832,-22.461
0.664,-0.631,0.404,0.122,-34.241,-21.545
0.671,-0.633,0.412,-0.732,-35.400,-21.118
0.677,-0.632,0.419,-3.845,-32.166,-22.034
0.680,-0.619,0.436,-7.080,-26.062,-23.804
0.673,-0.653,0.442,-9.827,-19.470,-27.710
0.666,-0.658,0.442,-11.780,-15.137,-29.419
0.660,-0.681,0.448,-12.878,-14.038,-29.053
0.660,-0.670,0.456,-13.733,-15.686,-27.649
0.656,-0.682,0.459,-12.817,-18.982,-27.344
0.783,-1.290,0.488,-46.692,80.261,90.454
0.827,-1.314,0.435,-47.607,91.980,104.980
0.880,-1.303,0.387,-52.002,102.417,121.216
0.919,-1.319,0.345,-59.631,108.215,138.123
0.984,-1.325,0.297,-64.636,111.145,150.085
1.062,-1.331,0.249,-69.153,112.488,157.288
1.158,-1.380,0.221,-73.059,111.572,158.936
1.255,-1.462,0.198,-74.951,108.337,155.762
1.346,-1.517,0.172,-73.303,104.126,146.606
1.470,-1.638,0.109,-72.510,104.187,133.057
1.603,-1.830,0.048,-72.754,113.892,118.286
1.616,-1.921,-0.094,-75.684,132.080,98.633
1.469,-1.944,-0.316,-84.595,153.259,74.280
1.219,-2.047,-0.562,-98.572,172.852,51.758
0.844,-2.278,-0.848,-117.554,190.247,35.461
0.300,-2.536,-1.224,-147.461,210.815,28.564
-0.214,-2.754,-1.483,-180.847,240.112,34.241
-0.841,-2.377,-1.728,-220.093,267.578,62.134
-1.294,-1.521,-1.879,-265.869,275.391,119.019
-1.503,-0.228,-1.825,-303.528,254.395,190.918
-1.497,1.531,-1.708,-316.833,209.106,257.996
-1.299,3.474,-1.561,-313.965,156.799,300.110
-0.572,4.000,-1.384,-303.223,121.948,294.556
0.498,4.000,-0.839,-289.795,96.008,295.654
1.303,4.000,0.204,-231.323,84.106,261.230
1.603,4.000,1.147,-124.634,52.917,229.736
1.658,3.462,2.057,-20.020,-62.683,215.393
1.622,2.123,2.991,55.969,-244.263,166.016
1.226,1.361,3.557,83.679,-395.203,59.204
0.858,1.075,3.444,86.487,-388.794,-24.109
0.785,1.016,2.781,104.736,-204.407,-38.025
0.566,1.125,1.700,126.831,46.692,-33.752
0.317,1.033,0.566,116.150,250.366,-53.772
-0.058,0.715,-0.249,92.651,339.661,-85.083
-0.279,0.481,-0.620,71.716,307.617,-103.760
-0.269,0.418,-0.656,62.866,202.026,-100.037
-0.126,0.448,-0.584,71.472,88.745,-85.876
0.102,0.470,-0.504,86.487,8.789,-73.120
0.300,0.514,-0.418,97.717,-32.654,-65.491
0.448,0.542,-0.304,99.426,-52.734,-65.186
0.572,0.597,-0.164,93.323,-68.176,-70.801
0.642,0.640,-0.016,89.172,-86.304,-76.355
0.637,0.631,0.114,89.111,-100.281,-83.008
0.625,0.537,0.211,90.149,-106.873,-89.233
0.625,0.448,0.271,91.248,-106.384,-89.783
0.620,0.365,0.309,89.966,-99.854,-86.243
0.638,0.302,0.299,88.318,-81.909,-81.482
0.679,0.231,0.260,87.097,-56.152,-74.463
0.721,0.183,0.198,85.693,-32.227,-66.528
0.784,0.156,0.128,85.571,-15.869,-60.242
0.822,0.113,0.052,87.280,-10.071,-59.875
0.844,-0.051,0.007,91.309,-13.306,-65.369
0.856,-0.190,-0.024,91.553,-22.400,-70.740
0.859,-0.236,-0.019,84.656,-33.081,-72.388
0.877,-0.289,0.021,75.378,-42.053,-70.801
0.889,-0.329,0.072,65.247,-46.631,-67.139
0.897,-0.350,0.112,56.396,-45.959,-62.439
0.915,-0.354,0.137,49.805,-41.931,-57.373
0.942,-0.348,0.150,46.326,-38.147,-52.368
0.975,-0.326,0.143,45.410,-36.804,-49.072
1.001,-0.352,0.203,45.471,-40.527,-48.889
1.066,-0.379,0.160,55.298,-48.767,-51.941
1.023,-0.424,0.216,56.641,-53.589,-51.575
1.026,-0.467,0.301,43.030,-66.162,-58.044
0.983,-0.509,0.351,43.762,-69.519,-59.265
0.967,-0.543,0.406,43.701,-69.824,-58.167
0.979,-0.516,0.450,43.213,-65.186,-54.138
0.991,-0.459,0.465,47.241,-55.786,-53.406
0.997,-0.416,0.455,51.819,-44.556,-57.068
0.978,-0.398,0.436,53.528,-35.156,-60.242
0.973,-0.422,0.414,55.420,-27.832,-61.340
0.966,-0.441,0.386,57.800,-22.522,-60.425
0.954,-0.469,0.365,59.631,-20.264,-58.105
0.948,-0.496,0.339,61.035,-20.508,-55.786
0.951,-0.518,0.311,60.364,-23.193,-55.359
0.915,-0.541,0.318,56.702,-28.259,-58.594
0.864,-0.592,0.342,53.101,-33.936,-62.744
0.798,-0.612,0.359,50.537,-38.391,-62.622
0.765,-0.632,0.369,49.255,-40.771,-58.105
0.747,-0.577,0.386,47.974,-41.321,-50.842
0.737,-0.583,0.396,49.561,-38.696,-46.387
0.738,-0.555,0.367,50.781,-32.898,-43.030
0.760,-0.503,0.345,49.255,-27.527,-37.781
0.768,-0.483,0.339,48.584,-24.719,-37.781
0.751,-0.507,0.327,49.988,-22.705,-42.175
0.741,-0.573,0.306,52.063,-20.630,-45.898
0.733,-0.623,0.269,51.331,-20.996,-46.509
0.718,-0.671,0.258,45.532,-26.245,-43.152
0.717,-0.681,0.267,37.720,-34.058,-38.940
0.726,-0.670,0.306,30.334,-40.894,-36.865
0.714,-0.679,0.357,25.391,-44.495,-37.292
0.685,-0.693,0.375,21.851,-43.762,-37.537
0.666,-0.684,0.400,20.508,-39.063,-33.691
0.668,-0.629,0.403,20.264,-31.494,-28.809
0.661,-0.608,0.398,21.912,-24.414,-26.245
0.651,-0.596,0.374,23.865,-18.372,-25.574
0.656,-0.601,0.344,24.963,-14.587,-24.170
0.667,-0.609,0.321,23.743,-13.977,-21.973
0.658,-0.626,0.297,20.508,-15.137,-21.118
0.660,-0.641,0.291,15.991,-15.808,-20.691
0.664,-0.644,0.301,11.780,-16.296,-20.508
0.664,-0.659,0.321,9.277,-17.151,-20.386
0.651,-0.662,0.338,4.944,-17.944,-21.179
0.657,-0.654,0.360,1.160,-18.799,-20.447
0.664,-0.627,0.383,0.183,-20.020,-18.799
0.663,-0.644,0.406,0.671,-19.836,-18.860
0.665,-0.638,0.390,1.892,-17.212,-19.470
0.674,-0.645,0.376,2.625,-12.878,-19.165
0.672,-0.647,0.365,2.563,-8.911,-17.822
0.682,-0.657,0.347,1.648,-5.920,-16.602
0.699,-0.643,0.341,-0.366,-4.639,-15.259
0.702,-0.644,0.346,-1.953,-5.798,-15.564
0.701,-0.651,0.350,-3.357,-8.911,-17.151
0.701,-0.657,0.361,-5.493,-12.573,-18.494
0.705,-0.651,0.366,-7.690,-14.893,-18.066
0.708,-0.646,0.377,-9.094,-15.930,-18.066
0.698,-0.641,0.387,-9.888,-16.235,-18.860
0.698,-0.649,0.394,-10.376,-15.930,-19.592
0.684,-0.645,0.401,-10.559,-15.625,-19.836